[{"view_history":[{"page_index":0,"viewing_time":5155.30000000447},{"page_index":1,"viewing_time":3965.6999999955297},{"page_index":2,"viewing_time":4809.70000000298},{"page_index":3,"viewing_time":1459.7999999970198}],"rt":15392.30000000447,"trial_type":"instructions","trial_index":0,"time_elapsed":15411,"internal_node_id":"0.0-0.0","task_version":"prescreen-v0.3"},{"rt":15502.29999999702,"responses":{"age":"18","gender-categorical":"Female","gender-free-response":"","ethnicity":"Not Hispanic or Latino","race":["White"],"education":"High school"},"trial_type":"survey-demo","trial_index":1,"time_elapsed":30929,"internal_node_id":"0.0-1.0","task_version":"prescreen-v0.3"},{"responses":{"Q08":"2","Q11":"3","Q14":"1","Q03":"1","Q17":"1","Q04":"2","Q20":"1","Q12":"2","Q09":"2","Q21":"3","Q13":"0","Q06":"0","Q05":"2","Q07":"0","Q16":"0","Q01":"1","Q19":"0","Q10":"1","Q02":"1","Q18":"0","Q15":"0"},"rt":225060.20000000298,"item_order":[7,10,13,2,16,3,19,11,8,20,12,5,4,6,15,0,18,9,1,17,14],"radio_events":[100490.10000000149,110037.20000000298,111224.20000000298,118803.39999999851,124500.89999999851,129347.70000000298,135039.5,142910.20000000298,153463.79999999702,159701.20000000298,166499.6000000015,171629.6000000015,175523.6000000015,182909.29999999702,190599.3999999985,196437.5,199879.1000000015,203907.79999999702,208131.79999999702,209623.29999999702,213829,219209.6000000015,223799],"key_events":[],"mouse_events":[100490.10000000149,110037.20000000298,111224.20000000298,118803.39999999851,124500.89999999851,129347.70000000298,135039.5,142910.20000000298,153463.79999999702,159701.20000000298,166499.6000000015,171629.6000000015,175523.6000000015,182909.29999999702,190599.3999999985,196437.5,199879.1000000015,203907.79999999702,208131.79999999702,209623.29999999702,213829,219209.6000000015,223799,225055.29999999702],"straightlining":0.3333333333333333,"zigzagging":0.5,"honeypot":0,"survey":"sns","trial_type":"survey-template","trial_index":2,"time_elapsed":256006,"internal_node_id":"0.0-2.0","task_version":"prescreen-v0.3","browser_interactions":0,"infrequency":0},{"responses":{"Q09":"2","Q01":"3","Q10":"2","Q06":"3","Q05":"3","Q11":"2","Q08":"2","Q12":"1","Q13":"0","Q02":"3","Q03":"3","Q07":"3","Q04":"3"},"rt":69521.39999999851,"item_order":[8,0,9,5,4,10,7,11,12,1,2,6,3],"radio_events":[11012.29999999702,15172.39999999851,17945,25183.19999999553,30420.79999999702,36909.19999999553,41288.59999999404,51718.79999999702,53662.79999999702,58938.29999999702,62062.79999999702,65240.89999999851,68800.79999999702],"key_events":[],"mouse_events":[11012.29999999702,15172.39999999851,17945,25183.19999999553,30420.79999999702,36909.19999999553,41288.59999999404,51718.79999999702,53662.79999999702,58938.29999999702,62062.79999999702,65240.89999999851,68800.79999999702,69519.09999999404],"straightlining":0.5384615384615384,"zigzagging":0.5833333333333334,"honeypot":0,"survey":"bisbas","trial_type":"survey-template","trial_index":3,"time_elapsed":325539,"internal_node_id":"0.0-3.0","task_version":"prescreen-v0.3","browser_interactions":0,"infrequency":0},{"responses":{"Q01":"4","Q02":"3","Q03":"3"},"rt":22739.79999999702,"radio_events":[9254.70000000298,15930.20000000298,21840.10000000149],"key_events":[],"mouse_events":[9254.70000000298,15930.20000000298,21840.10000000149,22738.20000000298],"survey":"map","page":1,"trial_type":"survey-map","trial_index":4,"time_elapsed":348289,"internal_node_id":"0.0-4.0","task_version":"prescreen-v0.3","browser_interactions":0},{"responses":{"Q04":"2","Q05":"3","Q06":"3"},"rt":21415.19999999553,"radio_events":[9391.5,17025.79999999702,20571.60000000149],"key_events":[],"mouse_events":[9391.5,17025.79999999702,20571.60000000149,21413.79999999702],"survey":"map","page":2,"trial_type":"survey-map","trial_index":5,"time_elapsed":369711,"internal_node_id":"0.0-5.0","task_version":"prescreen-v0.3","browser_interactions":0},{"responses":{"Q07":"4","Q08":"4","Q09":"4"},"rt":15570,"radio_events":[7924.10000000149,12505.70000000298,14934],"key_events":[],"mouse_events":[7924.10000000149,12505.70000000298,14934,15567.40000000596],"survey":"map","page":3,"trial_type":"survey-map","trial_index":6,"time_elapsed":385294,"internal_node_id":"0.0-6.0","task_version":"prescreen-v0.3","browser_interactions":0},{"responses":{"Q10":"3","Q11":"4","Q12":"3","Q13":"3","Q16":"0","Q14":"3","Q15":"4"},"rt":41418.60000000149,"radio_events":[14754.90000000596,17682.10000000149,21882.5,26816.30000000447,33078.10000000149,36544,40729.80000000447],"key_events":[],"mouse_events":[14754.90000000596,17682.10000000149,21882.5,26816.30000000447,33078.10000000149,36544,40729.80000000447,41415.80000000447],"survey":"map","page":4,"trial_type":"survey-map","trial_index":7,"time_elapsed":426726,"internal_node_id":"0.0-7.0","task_version":"prescreen-v0.3","browser_interactions":0,"infrequency":0},{"view_history":[{"page_index":0,"viewing_time":2880.5},{"page_index":1,"viewing_time":4971.30000000447}],"rt":7853.70000000298,"trial_type":"instructions","trial_index":8,"time_elapsed":434584,"internal_node_id":"0.0-8.0","task_version":"prescreen-v0.3"},{"responses":{"01":"No","02":"No","03":"No","04":"No","05":"No","06":"No"},"rt":35689,"item_order":[0,1,2,3,4,5],"radio_events":[8742,16993.89999999851,22319.89999999851,25683.30000000447,27673.10000000149,29923.10000000149,34569.60000000149],"checkbox_events":[],"key_events":[],"mouse_events":[0.5,8742,16993.89999999851,22319.89999999851,25683.30000000447,27673.10000000149,29923.10000000149,34569.60000000149,35672.80000000447],"honeypot":0,"survey":"mace","page":1,"trial_type":"survey-mace","trial_index":9,"time_elapsed":470289,"internal_node_id":"0.0-9.0","task_version":"prescreen-v0.3","browser_interactions":0},{"responses":{"01":"No","02":"No","03":"No","04":"No","05":"No","06":"No","07":"No","08":"No"},"rt":26764.80000000447,"item_order":[0,1,2,3,4,5,6,7],"radio_events":[4831.89999999851,5917.39999999851,7300.60000000149,12304.20000000298,13546.30000000447,22375.5,22485.89999999851,24289.5,25960.60000000149],"checkbox_events":[],"key_events":[],"mouse_events":[4831.89999999851,5917.39999999851,7300.60000000149,12304.20000000298,13546.30000000447,22375.5,22485.89999999851,24289.5,25960.60000000149,26756.60000000149],"honeypot":0,"survey":"mace","page":2,"trial_type":"survey-mace","trial_index":10,"time_elapsed":497074,"internal_node_id":"0.0-10.0","task_version":"prescreen-v0.3","browser_interactions":0},{"responses":{"01":"No","02":"No","03":"No","04":"No"},"rt":13232.5,"item_order":[0,1,2,3],"radio_events":[7208.10000000149,9356.10000000149,10714.39999999851,11940.39999999851],"checkbox_events":[],"key_events":[],"mouse_events":[7208.10000000149,9356.10000000149,10714.39999999851,11940.39999999851,13228.60000000149],"honeypot":0,"survey":"mace","page":3,"trial_type":"survey-mace","trial_index":11,"time_elapsed":510320,"internal_node_id":"0.0-11.0","task_version":"prescreen-v0.3","browser_interactions":0},{"responses":{"01":"No","02":"No"},"rt":7280.5,"item_order":[0,1],"radio_events":[4740.39999999851,6364.89999999851],"checkbox_events":[],"key_events":[],"mouse_events":[4740.39999999851,6364.89999999851,7278],"honeypot":0,"survey":"mace","page":4,"trial_type":"survey-mace","trial_index":12,"time_elapsed":517615,"internal_node_id":"0.0-12.0","task_version":"prescreen-v0.3","browser_interactions":0},{"responses":{"01":"No","02":"No","03":"No","04":"No","05":"No"},"rt":28633.80000000447,"item_order":[0,1,2,3,4],"radio_events":[7732.60000000149,20200.20000000298,24056.20000000298,24704.60000000149,27451.89999999851],"checkbox_events":[],"key_events":[],"mouse_events":[7732.60000000149,20200.20000000298,21620.20000000298,24056.20000000298,24704.60000000149,27451.89999999851,28624],"honeypot":0,"survey":"mace","page":5,"trial_type":"survey-mace","trial_index":13,"time_elapsed":546266,"internal_node_id":"0.0-13.0","task_version":"prescreen-v0.3","browser_interactions":0},{"responses":{"01":"No","02":"No","03":"No","04":"No","05":"No"},"rt":14640.60000000149,"item_order":[0,1,2,3,4],"radio_events":[2893.60000000149,4198.9000000059605,8350.80000000447,9303.10000000149,11177.30000000447],"checkbox_events":[],"key_events":[],"mouse_events":[2893.60000000149,4198.9000000059605,5189.10000000149,8350.80000000447,9303.10000000149,10606.10000000149,11177.30000000447,14635.20000000298],"honeypot":0,"survey":"mace","page":6,"trial_type":"survey-mace","trial_index":14,"time_elapsed":560927,"internal_node_id":"0.0-14.0","task_version":"prescreen-v0.3","browser_interactions":0},{"responses":{"01":"No","02":"No","03":"No","04":"No","05":"No","06":"No","07":"No"},"rt":19369.89999999851,"item_order":[0,1,2,3,4,5,6],"radio_events":[8242.39999999851,9333.5,11223.69999999553,11973.39999999851,14329.79999999702,15727.39999999851,18617.69999999553],"checkbox_events":[],"key_events":[],"mouse_events":[8242.39999999851,9333.5,11223.69999999553,11973.39999999851,14329.79999999702,15727.39999999851,18617.69999999553,19359.89999999851],"honeypot":0,"survey":"mace","page":7,"trial_type":"survey-mace","trial_index":15,"time_elapsed":580326,"internal_node_id":"0.0-15.0","task_version":"prescreen-v0.3","browser_interactions":0},{"responses":{"01":"No","02":"Yes","02_ages_10":"10","02_ages_11":"11","02_ages_12":"12","02_ages_13":"13","02_ages_14":"14","02_ages_15":"15","02_ages_16":"16","02_ages_17":"17","02_ages_18":"18","03":"No","04":"No"},"rt":26386.89999999851,"item_order":[0,1,2,3],"radio_events":[5528.5,8049.89999999851,22704.5,25687.80000000447],"checkbox_events":[12009.10000000149,12861.39999999851,13545.89999999851,14288,15108.10000000149,15616.60000000149,16116.89999999851,16723.89999999851,18777.60000000149],"key_events":[],"mouse_events":[5528.5,8049.89999999851,12009.10000000149,12861.39999999851,13545.89999999851,14288,15108.10000000149,15616.60000000149,16116.89999999851,16723.89999999851,17084,18405,18777.60000000149,22704.5,25687.80000000447,26382.20000000298],"honeypot":0,"survey":"mace","page":8,"trial_type":"survey-mace","trial_index":16,"time_elapsed":606729,"internal_node_id":"0.0-16.0","task_version":"prescreen-v0.3","browser_interactions":0},{"responses":{"01":"Yes","01_ages_1":"1","01_ages_2":"2","01_ages_3":"3","01_ages_4":"4","01_ages_5":"5","01_ages_6":"6","01_ages_7":"7","01_ages_8":"8","01_ages_9":"9","01_ages_10":"10","01_ages_11":"11","01_ages_12":"12","01_ages_13":"13","01_ages_14":"14","01_ages_15":"15","01_ages_16":"16","01_ages_17":"17","01_ages_18":"18","02":"Yes","02_ages_1":"1","02_ages_2":"2","02_ages_3":"3","02_ages_4":"4","02_ages_5":"5","02_ages_6":"6","02_ages_7":"7","02_ages_8":"8","02_ages_9":"9","02_ages_10":"10","02_ages_11":"11","02_ages_12":"12","02_ages_13":"13","02_ages_14":"14","02_ages_15":"15","02_ages_16":"16","02_ages_17":"17","02_ages_18":"18","03":"Yes","03_ages_1":"1","03_ages_2":"2","03_ages_3":"3","03_ages_4":"4","03_ages_5":"5","03_ages_6":"6","03_ages_7":"7","03_ages_8":"8","03_ages_9":"9","03_ages_10":"10","03_ages_11":"11","03_ages_12":"12","03_ages_13":"13","03_ages_14":"14","03_ages_15":"15","03_ages_16":"16","03_ages_17":"17","03_ages_18":"18","04":"Yes","04_ages_1":"1","04_ages_2":"2","04_ages_3":"3","04_ages_4":"4","04_ages_5":"5","04_ages_6":"6","04_ages_7":"7","04_ages_8":"8","04_ages_9":"9","04_ages_10":"10","04_ages_11":"11","04_ages_12":"12","04_ages_13":"13","04_ages_14":"14","04_ages_15":"15","04_ages_16":"16","04_ages_17":"17","04_ages_18":"18"},"rt":83586.5,"item_order":[0,1,2,3],"radio_events":[3885.3000000044703,28409.20000000298,45743,65059.70000000298],"checkbox_events":[5337.70000000298,5862.89999999851,7289.5,8375.20000000298,9241.39999999851,9951.39999999851,11108.70000000298,12232.39999999851,13263.70000000298,14254.30000000447,17721.30000000447,19571.70000000298,20289.80000000447,21243.10000000149,22070.5,22726.10000000149,24007.39999999851,25599.80000000447,29636.70000000298,30065.10000000149,30993.60000000149,31500.60000000149,32267.70000000298,32899.60000000149,33367.39999999851,34555.30000000447,35203,35836.60000000149,36771.39999999851,37311.39999999851,38279.10000000149,39457.70000000298,40153,40805,41449.5,42011.30000000447,47577.30000000447,47992.20000000298,48483.70000000298,49500.5,50391.20000000298,50787.89999999851,51271.70000000298,52341.5,52999.20000000298,53701.30000000447,54298.70000000298,55066.5,55971.80000000447,56932.20000000298,57907.70000000298,58563.10000000149,59299.5,59868.10000000149,67035.80000000447,67707.30000000447,68237.5,69581.80000000447,70799.5,71612.10000000149,72549.30000000447,73580.80000000447,74405.60000000149,75688.30000000447,76788.10000000149,77899.30000000447,78489.89999999851,79232.20000000298,80785.70000000298,81458.39999999851,82122,83097.5],"key_events":[],"mouse_events":[3885.3000000044703,5337.70000000298,5862.89999999851,6556.5,7289.5,8375.20000000298,9241.39999999851,9951.39999999851,10702.70000000298,11108.70000000298,12232.39999999851,13263.70000000298,14254.30000000447,17721.30000000447,19571.70000000298,20289.80000000447,21243.10000000149,22070.5,22726.10000000149,24007.39999999851,25599.80000000447,28409.20000000298,29636.70000000298,30065.10000000149,30993.60000000149,31500.60000000149,32267.70000000298,32899.60000000149,33367.39999999851,34555.30000000447,35203,35836.60000000149,36312.20000000298,36771.39999999851,37311.39999999851,38279.10000000149,39457.70000000298,40153,40805,41449.5,42011.30000000447,45743,47577.30000000447,47992.20000000298,48483.70000000298,49500.5,50391.20000000298,50787.89999999851,51271.70000000298,52341.5,52999.20000000298,53701.30000000447,54298.70000000298,55066.5,55971.80000000447,56932.20000000298,57907.70000000298,58563.10000000149,59299.5,59868.10000000149,65059.70000000298,67035.80000000447,67707.30000000447,68237.5,69581.80000000447,70799.5,71612.10000000149,72549.30000000447,73580.80000000447,74405.60000000149,75688.30000000447,76788.10000000149,77899.30000000447,78489.89999999851,79232.20000000298,80240.20000000298,80785.70000000298,81458.39999999851,82122,83097.5,83582.5],"honeypot":0,"survey":"mace","page":9,"trial_type":"survey-mace","trial_index":17,"time_elapsed":690336,"internal_node_id":"0.0-17.0","task_version":"prescreen-v0.3","browser_interactions":0},{"responses":{"01":"No","02":"No","03":"No","04":"Yes","04_ages_14":"14","04_ages_15":"15","04_ages_16":"16","04_ages_17":"17","04_ages_18":"18","05":"No","06":"Yes","06_ages_17":"17","07":"Yes","07_ages_1":"1","07_ages_2":"2","07_ages_3":"3","07_ages_4":"4","07_ages_5":"5","07_ages_6":"6","07_ages_7":"7","07_ages_8":"8","07_ages_9":"9","07_ages_10":"10","07_ages_11":"11","07_ages_12":"12","07_ages_13":"13","07_ages_14":"14","07_ages_15":"15","07_ages_16":"16","07_ages_17":"17","07_ages_18":"18","08":"Yes","08_ages_1":"1","08_ages_2":"2","08_ages_3":"3","08_ages_4":"4","08_ages_5":"5","08_ages_6":"6","08_ages_7":"7","08_ages_8":"8","08_ages_9":"9","08_ages_10":"10","08_ages_11":"11","08_ages_12":"12","08_ages_13":"13","08_ages_14":"14","08_ages_15":"15","08_ages_16":"16","08_ages_17":"17","08_ages_18":"18"},"rt":69186.59999999404,"item_order":[0,1,2,3,4,5,6,7],"radio_events":[3679.5999999940395,4609,6701.5,11659.09999999404,23785.39999999851,26407.79999999702,36199.59999999404,52845.5],"checkbox_events":[14674.29999999702,15659,18439.09999999404,19093.89999999851,19811.19999999553,27744.89999999851,37356.09999999404,38729.39999999851,39619.69999999553,40148.89999999851,40266.89999999851,41219.19999999553,41703.59999999404,42171.29999999702,42648.79999999702,43811.39999999851,44343.09999999404,45303.39999999851,45764.19999999553,46209.29999999702,46997.5,47505.79999999702,48802,49347.5,50012.39999999851,50730.09999999404,55030.89999999851,55687,56133.59999999404,57038.29999999702,57787.59999999404,58733.5,59373.39999999851,59997,60489.39999999851,61629.5,62777.19999999553,63721.59999999404,64917.29999999702,65775.69999999553,66386.09999999404,66822.09999999404,67899.29999999702,68587.19999999553],"key_events":[],"mouse_events":[2797.7999999970198,3679.5999999940395,4609,6701.5,11659.09999999404,14010.19999999553,14674.29999999702,15659,16353.59999999404,17321.29999999702,18439.09999999404,19093.89999999851,19811.19999999553,23785.39999999851,26407.79999999702,27744.89999999851,33271.59999999404,36199.59999999404,37356.09999999404,38112.59999999404,38729.39999999851,39619.69999999553,40148.89999999851,40266.89999999851,41219.19999999553,41703.59999999404,42171.29999999702,42648.79999999702,43811.39999999851,44343.09999999404,45303.39999999851,45764.19999999553,46209.29999999702,46997.5,47505.79999999702,48802,49347.5,50012.39999999851,50730.09999999404,52845.5,55030.89999999851,55687,56133.59999999404,57038.29999999702,57787.59999999404,58733.5,59373.39999999851,59997,60489.39999999851,61629.5,62777.19999999553,63721.59999999404,64917.29999999702,65775.69999999553,66386.09999999404,66822.09999999404,67899.29999999702,68587.19999999553,69166.09999999404],"honeypot":0,"survey":"mace","page":10,"trial_type":"survey-mace","trial_index":18,"time_elapsed":759539,"internal_node_id":"0.0-18.0","task_version":"prescreen-v0.3","browser_interactions":0,"instructed":0},{"rt":6932,"trial_type":"mental-health-alert","trial_index":19,"time_elapsed":766479,"internal_node_id":"0.0-19.0","task_version":"prescreen-v0.3","interactions":"[]"}]