[{"view_history":[{"page_index":0,"viewing_time":2015.199999988079},{"page_index":1,"viewing_time":3667},{"page_index":2,"viewing_time":2753.300000011921},{"page_index":3,"viewing_time":1265.2999999523163}],"rt":9701.399999976158,"trial_type":"instructions","trial_index":0,"time_elapsed":9775,"internal_node_id":"0.0-0.0","task_version":"prescreen-v0.3"},{"rt":14936.900000035763,"responses":{"age":"36","gender-categorical":"Female","gender-free-response":"","ethnicity":"Not Hispanic or Latino","race":["White"],"education":"Master degree or higher"},"trial_type":"survey-demo","trial_index":1,"time_elapsed":24717,"internal_node_id":"0.0-1.0","task_version":"prescreen-v0.3"},{"responses":{"Q19":"1","Q16":"0","Q17":"0","Q08":"2","Q12":"2","Q09":"2","Q20":"2","Q02":"2","Q05":"1","Q15":"2","Q10":"2","Q03":"1","Q04":"1","Q01":"2","Q18":"2","Q13":"2","Q06":"1","Q07":"2","Q21":"3","Q14":"2","Q11":"2"},"rt":199347.19999998808,"item_order":[18,15,16,7,11,8,19,1,4,14,9,2,3,0,17,12,5,6,20,13,10],"radio_events":[11524.100000023842,21270.900000035763,28774.5,57531,75176.19999998808,86514.90000003576,92388.90000003576,105777.60000002384,116641.69999998808,131302.80000001192,135682.90000003576,142767.90000003576,149513,154575.80000001192,164121.90000003576,168561.30000001192,175900.40000003576,181146,184670.69999998808,194351.5,198392.40000003576],"key_events":[],"mouse_events":[11524.100000023842,21270.900000035763,28774.5,57531,75176.19999998808,86514.90000003576,92388.90000003576,105777.60000002384,116641.69999998808,131302.80000001192,135682.90000003576,142767.90000003576,149513,154575.80000001192,164121.90000003576,168561.30000001192,175900.40000003576,181146,184670.69999998808,194351.5,198392.40000003576,199345.60000002384],"straightlining":0.6190476190476191,"zigzagging":0.45,"honeypot":0,"survey":"sns","trial_type":"survey-template","trial_index":2,"time_elapsed":224068,"internal_node_id":"0.0-2.0","task_version":"prescreen-v0.3","browser_interactions":0,"infrequency":0},{"responses":{"Q07":"3","Q13":"0","Q09":"2","Q04":"3","Q01":"2","Q08":"2","Q10":"2","Q11":"3","Q06":"3","Q05":"2","Q02":"2","Q12":"2","Q03":"1"},"rt":89210.5,"item_order":[6,12,8,3,0,7,9,10,5,4,1,11,2],"radio_events":[25314.099999964237,26699.599999964237,29901.5,37512.19999998808,45247.09999996424,52515.39999997616,55640.69999998808,62508.69999998808,64525.5,67548.59999996424,74426.39999997616,80309.59999996424,88384.89999997616],"key_events":[],"mouse_events":[23022.599999964237,25314.099999964237,26699.599999964237,29901.5,37512.19999998808,45247.09999996424,52515.39999997616,55640.69999998808,62508.69999998808,64525.5,67548.59999996424,74426.39999997616,80309.59999996424,88384.89999997616,89209.69999998808],"straightlining":0.5384615384615384,"zigzagging":0.5,"honeypot":0,"survey":"bisbas","trial_type":"survey-template","trial_index":3,"time_elapsed":313282,"internal_node_id":"0.0-3.0","task_version":"prescreen-v0.3","browser_interactions":0,"infrequency":0},{"responses":{"Q01":"3","Q02":"3","Q03":"2"},"rt":19778.5,"radio_events":[7822.5,16382.399999976158,19029],"key_events":[],"mouse_events":[7822.5,16382.399999976158,19029,19778.099999964237],"survey":"map","page":1,"trial_type":"survey-map","trial_index":4,"time_elapsed":333063,"internal_node_id":"0.0-4.0","task_version":"prescreen-v0.3","browser_interactions":0},{"responses":{"Q04":"4","Q05":"3","Q06":"3"},"rt":17398.100000023842,"radio_events":[10055,14314.100000023842,16749.5],"key_events":[],"mouse_events":[10055,14314.100000023842,16749.5,17397.80000001192],"survey":"map","page":2,"trial_type":"survey-map","trial_index":5,"time_elapsed":350462,"internal_node_id":"0.0-5.0","task_version":"prescreen-v0.3","browser_interactions":0},{"responses":{"Q07":"3","Q08":"3","Q09":"3"},"rt":12782.599999964237,"radio_events":[4386.599999964237,9182.5,12052.699999988079],"key_events":[],"mouse_events":[4386.599999964237,9182.5,12052.699999988079,12782.099999964237],"survey":"map","page":3,"trial_type":"survey-map","trial_index":6,"time_elapsed":363247,"internal_node_id":"0.0-6.0","task_version":"prescreen-v0.3","browser_interactions":0},{"responses":{"Q10":"2","Q11":"2","Q12":"4","Q13":"3","Q16":"3","Q14":"3","Q15":"3"},"rt":35787.80000001192,"radio_events":[12883.100000023842,15676.5,18005.899999976158,20440.100000023842,26890.100000023842,30674.899999976158,35070.5],"key_events":[],"mouse_events":[12883.100000023842,15676.5,18005.899999976158,20440.100000023842,26890.100000023842,30674.899999976158,35070.5,35787.10000002384],"survey":"map","page":4,"trial_type":"survey-map","trial_index":7,"time_elapsed":399037,"internal_node_id":"0.0-7.0","task_version":"prescreen-v0.3","browser_interactions":0,"infrequency":1},{"view_history":[{"page_index":0,"viewing_time":2037.800000011921},{"page_index":1,"viewing_time":3994.599999964237}],"rt":6032.600000023842,"trial_type":"instructions","trial_index":8,"time_elapsed":405071,"internal_node_id":"0.0-8.0","task_version":"prescreen-v0.3"},{"responses":{"01":"No","02":"Yes","02_ages_7":"7","02_ages_8":"8","02_ages_9":"9","02_ages_10":"10","02_ages_11":"11","03":"No","04":"Yes","04_ages_8":"8","04_ages_9":"9","04_ages_10":"10","04_ages_11":"11","04_ages_12":"12","04_ages_13":"13","04_ages_14":"14","04_ages_15":"15","04_ages_16":"16","04_ages_17":"17","04_ages_18":"18","05":"No","06":"No"},"rt":38283,"item_order":[0,1,2,3,4,5],"radio_events":[8982.199999988079,11112.399999976158,23463.19999998808,24832.099999964237,34649.59999996424,37381.19999998808],"checkbox_events":[15819.099999964237,16382.699999988079,17099.099999964237,17397.099999964237,18721.80000001192,28158.399999976158,28529.19999998808,28939.69999998808,29327,29756.5,30278.399999976158,30610.399999976158,31122.899999976158,31473.80000001192,31864.69999998808,32270.69999998808],"key_events":[],"mouse_events":[0.09999996423721313,8982.199999988079,11112.399999976158,15819.099999964237,16382.699999988079,17099.099999964237,17397.099999964237,18721.80000001192,23463.19999998808,24832.099999964237,28158.399999976158,28529.19999998808,28939.69999998808,29327,29756.5,30278.399999976158,30610.399999976158,31122.899999976158,31473.80000001192,31864.69999998808,32270.69999998808,34649.59999996424,37381.19999998808,38281],"honeypot":0,"survey":"mace","page":1,"trial_type":"survey-mace","trial_index":9,"time_elapsed":443360,"internal_node_id":"0.0-9.0","task_version":"prescreen-v0.3","browser_interactions":0},{"responses":{"01":"No","02":"No","03":"Yes","03_ages_6":"6","03_ages_7":"7","04":"No","05":"No","06":"No","07":"No","08":"No"},"rt":19807.80000001192,"item_order":[0,1,2,3,4,5,6,7],"radio_events":[1991.1000000238419,4475.5,5648.600000023842,10858.899999976158,13296.399999976158,16471.5,17806.399999976158,19152.30000001192],"checkbox_events":[6884.100000023842,7467.5],"key_events":[],"mouse_events":[1991.1000000238419,4475.5,5648.600000023842,6884.100000023842,7467.5,10858.899999976158,13296.399999976158,16471.5,17806.399999976158,19152.30000001192,19805.19999998808],"honeypot":0,"survey":"mace","page":2,"trial_type":"survey-mace","trial_index":10,"time_elapsed":463172,"internal_node_id":"0.0-10.0","task_version":"prescreen-v0.3","browser_interactions":0},{"responses":{"01":"No","02":"No","03":"No","04":"No"},"rt":9092.899999976158,"item_order":[0,1,2,3],"radio_events":[2721.399999976158,5730.100000023842,6946.199999988079,8520.100000023842],"checkbox_events":[],"key_events":[],"mouse_events":[2721.399999976158,5730.100000023842,6946.199999988079,8520.100000023842,9091.399999976158],"honeypot":0,"survey":"mace","page":3,"trial_type":"survey-mace","trial_index":11,"time_elapsed":472267,"internal_node_id":"0.0-11.0","task_version":"prescreen-v0.3","browser_interactions":0},{"responses":{"01":"No","02":"No"},"rt":3957.600000023842,"item_order":[0,1],"radio_events":[2321.900000035763,3389.900000035763],"checkbox_events":[],"key_events":[],"mouse_events":[2321.900000035763,3389.900000035763,3956.800000011921],"honeypot":0,"survey":"mace","page":4,"trial_type":"survey-mace","trial_index":12,"time_elapsed":476226,"internal_node_id":"0.0-12.0","task_version":"prescreen-v0.3","browser_interactions":0},{"responses":{"01":"Yes","01_ages_8":"8","01_ages_9":"9","01_ages_10":"10","02":"No","03":"No","04":"No","05":"No"},"rt":109930.19999998808,"item_order":[0,1,2,3,4],"radio_events":[13059.399999976158,18382.19999998808,19847.69999998808,99969.69999998808,109302.29999995232],"checkbox_events":[15555.199999988079,15858.099999964237,16154.5],"key_events":[],"mouse_events":[13059.399999976158,15555.199999988079,15858.099999964237,16154.5,18382.19999998808,19847.69999998808,99969.69999998808,109302.29999995232,109928.5],"honeypot":0,"survey":"mace","page":5,"trial_type":"survey-mace","trial_index":13,"time_elapsed":586159,"internal_node_id":"0.0-13.0","task_version":"prescreen-v0.3","browser_interactions":0},{"responses":{"01":"Yes","01_ages_7":"7","01_ages_8":"8","01_ages_9":"9","01_ages_10":"10","01_ages_11":"11","01_ages_12":"12","01_ages_13":"13","01_ages_14":"14","01_ages_15":"15","01_ages_16":"16","01_ages_17":"17","01_ages_18":"18","02":"Yes","02_ages_7":"7","02_ages_8":"8","02_ages_9":"9","02_ages_10":"10","02_ages_11":"11","02_ages_12":"12","02_ages_13":"13","02_ages_14":"14","02_ages_15":"15","02_ages_16":"16","02_ages_17":"17","02_ages_18":"18","03":"Yes","03_ages_10":"10","03_ages_11":"11","03_ages_12":"12","03_ages_13":"13","03_ages_14":"14","03_ages_15":"15","03_ages_16":"16","03_ages_17":"17","03_ages_18":"18","04":"Yes","04_ages_10":"10","04_ages_11":"11","04_ages_12":"12","04_ages_13":"13","04_ages_14":"14","04_ages_15":"15","05":"No"},"rt":41658.799999952316,"item_order":[0,1,2,3,4],"radio_events":[8643.899999976158,16306.599999964237,24451.19999998808,33575.09999996424,40954.799999952316],"checkbox_events":[10134.399999976158,10430.599999964237,10809.199999988079,11157.5,11547.399999976158,11925,12316.899999976158,12766.599999964237,13181.199999988079,13510.599999964237,14317,14599.699999988079,17419.5,17853.099999964237,18242.599999964237,18585.799999952316,18914.899999976158,19330.099999964237,19755.19999998808,20106.69999998808,20503,20873.099999964237,21197.899999976158,21578.69999998808,27145.899999976158,27512.399999976158,27883.399999976158,28284.899999976158,28684.299999952316,29060.5,29430.899999976158,29810.69999998808,30258.5,36856.19999998808,37098,37436.59999996424,37767.89999997616,38109.299999952316,38728.799999952316],"key_events":[],"mouse_events":[8643.899999976158,10134.399999976158,10430.599999964237,10809.199999988079,11157.5,11547.399999976158,11925,12316.899999976158,12766.599999964237,13181.199999988079,13510.599999964237,14317,14599.699999988079,16306.599999964237,17419.5,17853.099999964237,18242.599999964237,18585.799999952316,18914.899999976158,19330.099999964237,19755.19999998808,20106.69999998808,20503,20873.099999964237,21197.899999976158,21578.69999998808,24451.19999998808,27145.899999976158,27512.399999976158,27883.399999976158,28284.899999976158,28684.299999952316,29060.5,29430.899999976158,29810.69999998808,30258.5,33575.09999996424,36856.19999998808,37098,37436.59999996424,37767.89999997616,38109.299999952316,38728.799999952316,40954.799999952316,41657.09999996424],"honeypot":0,"survey":"mace","page":6,"trial_type":"survey-mace","trial_index":14,"time_elapsed":627821,"internal_node_id":"0.0-14.0","task_version":"prescreen-v0.3","browser_interactions":0},{"responses":{"01":"No","02":"No","03":"No","04":"No","05":"No","06":"No","07":"No"},"rt":11058,"item_order":[0,1,2,3,4,5,6],"radio_events":[2408.800000011921,3826.199999988079,5268.599999964237,6699.800000011921,7705.699999988079,9632.399999976158,10230.399999976158],"checkbox_events":[],"key_events":[],"mouse_events":[2408.800000011921,3826.199999988079,5268.599999964237,6699.800000011921,7705.699999988079,9632.399999976158,10230.399999976158,11055.800000011921],"honeypot":0,"survey":"mace","page":7,"trial_type":"survey-mace","trial_index":15,"time_elapsed":638882,"internal_node_id":"0.0-15.0","task_version":"prescreen-v0.3","browser_interactions":0},{"responses":{"01":"Yes","01_ages_8":"8","01_ages_9":"9","01_ages_10":"10","01_ages_11":"11","01_ages_12":"12","01_ages_13":"13","01_ages_14":"14","01_ages_15":"15","01_ages_16":"16","01_ages_17":"17","01_ages_18":"18","02":"Yes","02_ages_10":"10","02_ages_11":"11","02_ages_12":"12","02_ages_13":"13","02_ages_14":"14","02_ages_15":"15","03":"No","04":"No"},"rt":32466.299999952316,"item_order":[0,1,2,3],"radio_events":[7433.299999952316,19378,29723.099999964237,31823.69999998808],"checkbox_events":[11695,12044.099999964237,12424,12719.799999952316,13100,13925.599999964237,14181.799999952316,14955.399999976158,15823.199999988079,16263.599999964237,16603.299999952316,23616.099999964237,24237.5,24862.399999976158,25425.599999964237,26100.69999998808,26593.5],"key_events":[],"mouse_events":[7433.299999952316,11695,12044.099999964237,12424,12719.799999952316,13100,13925.599999964237,14181.799999952316,14955.399999976158,15823.199999988079,16263.599999964237,16603.299999952316,19378,23616.099999964237,24237.5,24862.399999976158,25425.599999964237,26100.69999998808,26593.5,29723.099999964237,31823.69999998808,32464.899999976158],"honeypot":0,"survey":"mace","page":8,"trial_type":"survey-mace","trial_index":16,"time_elapsed":671351,"internal_node_id":"0.0-16.0","task_version":"prescreen-v0.3","browser_interactions":0},{"responses":{"01":"Yes","01_ages_1":"1","01_ages_2":"2","01_ages_3":"3","01_ages_4":"4","01_ages_5":"5","01_ages_6":"6","01_ages_7":"7","01_ages_8":"8","01_ages_9":"9","01_ages_10":"10","01_ages_11":"11","01_ages_12":"12","01_ages_13":"13","01_ages_14":"14","01_ages_15":"15","01_ages_16":"16","01_ages_17":"17","01_ages_18":"18","02":"Yes","02_ages_1":"1","02_ages_2":"2","02_ages_3":"3","02_ages_4":"4","02_ages_5":"5","02_ages_6":"6","02_ages_7":"7","02_ages_8":"8","02_ages_9":"9","02_ages_10":"10","02_ages_11":"11","02_ages_12":"12","02_ages_13":"13","02_ages_14":"14","02_ages_15":"15","02_ages_16":"16","02_ages_17":"17","02_ages_18":"18","03":"Yes","03_ages_1":"1","03_ages_2":"2","03_ages_3":"3","03_ages_4":"4","03_ages_5":"5","03_ages_6":"6","03_ages_7":"7","03_ages_8":"8","03_ages_9":"9","03_ages_10":"10","03_ages_11":"11","03_ages_12":"12","03_ages_13":"13","03_ages_14":"14","03_ages_15":"15","03_ages_16":"16","03_ages_17":"17","03_ages_18":"18","04":"Yes","04_ages_1":"1","04_ages_2":"2","04_ages_3":"3","04_ages_4":"4","04_ages_5":"5","04_ages_6":"6","04_ages_7":"7","04_ages_8":"8","04_ages_9":"9","04_ages_10":"10","04_ages_11":"11","04_ages_12":"12","04_ages_13":"13","04_ages_14":"14","04_ages_15":"15","04_ages_16":"16","04_ages_17":"17","04_ages_18":"18"},"rt":54598.19999998808,"item_order":[0,1,2,3],"radio_events":[4035.399999976158,17940.69999998808,30728.299999952316,44526.5],"checkbox_events":[8245,8736.599999964237,9024,9375.5,9732.699999988079,10522.799999952316,10776,11114.5,11439.599999964237,11830.899999976158,12171.099999964237,12574.399999976158,12925.399999976158,13744.299999952316,14098.899999976158,14499.699999988079,14887.5,15227.099999964237,18979.599999964237,19835.799999952316,20188.799999952316,21292.599999964237,21570.299999952316,22277.399999976158,22586.19999998808,22977,23368.5,24342.299999952316,24670.19999998808,26093.19999998808,26769.5,27173.099999964237,28381.399999976158,28654.799999952316,29020.69999998808,29372.399999976158,33649.69999998808,33880.09999996424,34311.39999997616,34677.69999998808,35081.299999952316,35531.59999996424,35880.59999996424,36348,37313.59999996424,37694.19999998808,38141.59999996424,38516.799999952316,38979.89999997616,39371.89999997616,39757.89999997616,43302.39999997616,43571.5,43891.19999998808,47431.5,47727,48369.89999997616,48594.69999998808,48992.5,49400.299999952316,49749.19999998808,50112.799999952316,50458.299999952316,50815.59999996424,51193.299999952316,51578.5,52083.09999996424,52473,52882.89999997616,53253.39999997616,53660.299999952316,53984.799999952316],"key_events":[],"mouse_events":[4035.399999976158,8245,8736.599999964237,9024,9375.5,9732.699999988079,10522.799999952316,10776,11114.5,11439.599999964237,11830.899999976158,12171.099999964237,12574.399999976158,12925.399999976158,13744.299999952316,14098.899999976158,14499.699999988079,14887.5,15227.099999964237,17940.69999998808,18979.599999964237,19835.799999952316,20188.799999952316,21292.599999964237,21570.299999952316,22277.399999976158,22586.19999998808,22977,23368.5,24342.299999952316,24670.19999998808,26093.19999998808,26769.5,27173.099999964237,28381.399999976158,28654.799999952316,29020.69999998808,29372.399999976158,30728.299999952316,33649.69999998808,33880.09999996424,34311.39999997616,34677.69999998808,35081.299999952316,35531.59999996424,35880.59999996424,36348,37313.59999996424,37694.19999998808,38141.59999996424,38516.799999952316,38979.89999997616,39371.89999997616,39757.89999997616,43302.39999997616,43571.5,43891.19999998808,44526.5,47431.5,47727,48369.89999997616,48594.69999998808,48992.5,49400.299999952316,49749.19999998808,50112.799999952316,50458.299999952316,50815.59999996424,51193.299999952316,51578.5,52083.09999996424,52473,52882.89999997616,53253.39999997616,53660.299999952316,53984.799999952316,54596.799999952316],"honeypot":0,"survey":"mace","page":9,"trial_type":"survey-mace","trial_index":17,"time_elapsed":725952,"internal_node_id":"0.0-17.0","task_version":"prescreen-v0.3","browser_interactions":0},{"responses":{"01":"Yes","01_ages_6":"6","01_ages_7":"7","01_ages_8":"8","01_ages_9":"9","01_ages_10":"10","01_ages_14":"14","01_ages_15":"15","01_ages_16":"16","02":"No","03":"Yes","03_ages_9":"9","03_ages_10":"10","03_ages_11":"11","03_ages_12":"12","03_ages_13":"13","03_ages_14":"14","03_ages_15":"15","03_ages_16":"16","03_ages_17":"17","03_ages_18":"18","04":"Yes","04_ages_7":"7","04_ages_8":"8","04_ages_9":"9","04_ages_10":"10","04_ages_11":"11","04_ages_12":"12","04_ages_13":"13","04_ages_14":"14","04_ages_15":"15","04_ages_16":"16","04_ages_17":"17","04_ages_18":"18","05":"No","06":"Yes","06_ages_17":"17","07":"Yes","07_ages_1":"1","07_ages_2":"2","07_ages_3":"3","07_ages_4":"4","07_ages_5":"5","07_ages_6":"6","07_ages_7":"7","07_ages_16":"16","07_ages_17":"17","07_ages_18":"18","08":"Yes","08_ages_1":"1","08_ages_2":"2","08_ages_3":"3","08_ages_4":"4","08_ages_5":"5","08_ages_6":"6","08_ages_7":"7","08_ages_17":"17","08_ages_18":"18"},"rt":59715.60000002384,"item_order":[0,1,2,3,4,5,6,7],"radio_events":[3837.800000011921,14139.100000023842,16179.399999976158,22881.30000001192,33406.19999998808,35084.60000002384,41629.39999997616,52689.5],"checkbox_events":[6899.100000023842,7140.399999976158,7498.899999976158,7817.100000023842,8145.5,10842.399999976158,11179,11656.300000011921,17903.100000023842,18278.19999998808,18634.5,18965.600000023842,19335.100000023842,19663.100000023842,20027,20434,20785.100000023842,21136.399999976158,24890.5,25279.69999998808,25643.100000023842,25956.600000023842,26394.19999998808,26695.80000001192,27087.5,27384.899999976158,27750.19999998808,28083.80000001192,28457.30000001192,28794.399999976158,36072,44741.69999998808,45106.60000002384,46701.80000001192,47011.5,47337.39999997616,47688.10000002384,48005.60000002384,48373.60000002384,48869.39999997616,54766.89999997616,55060.10000002384,55412.10000002384,55830.39999997616,56125.89999997616,56420.89999997616,56729.39999997616,57557.39999997616,57833.39999997616,58135.30000001192],"key_events":[],"mouse_events":[3837.800000011921,6899.100000023842,7140.399999976158,7498.899999976158,7817.100000023842,8145.5,10842.399999976158,11179,11656.300000011921,14139.100000023842,16179.399999976158,17903.100000023842,18278.19999998808,18634.5,18965.600000023842,19335.100000023842,19663.100000023842,20027,20434,20785.100000023842,21136.399999976158,22881.30000001192,24890.5,25279.69999998808,25643.100000023842,25956.600000023842,26394.19999998808,26695.80000001192,27087.5,27384.899999976158,27750.19999998808,28083.80000001192,28457.30000001192,28794.399999976158,33406.19999998808,35084.60000002384,36072,41629.39999997616,44741.69999998808,45106.60000002384,46701.80000001192,47011.5,47337.39999997616,47688.10000002384,48005.60000002384,48373.60000002384,48869.39999997616,52689.5,54766.89999997616,55060.10000002384,55412.10000002384,55830.39999997616,56125.89999997616,56420.89999997616,56729.39999997616,57557.39999997616,57833.39999997616,58135.30000001192,59713],"honeypot":0,"survey":"mace","page":10,"trial_type":"survey-mace","trial_index":18,"time_elapsed":785671,"internal_node_id":"0.0-18.0","task_version":"prescreen-v0.3","browser_interactions":0,"instructed":0},{"rt":5673.299999952316,"trial_type":"mental-health-alert","trial_index":19,"time_elapsed":791346,"internal_node_id":"0.0-19.0","task_version":"prescreen-v0.3","interactions":"[]"}]