[{"view_history":[{"page_index":0,"viewing_time":4285.199999988079},{"page_index":1,"viewing_time":1816.800000011921},{"page_index":2,"viewing_time":6293.100000023842},{"page_index":3,"viewing_time":964}],"rt":13359.699999988079,"trial_type":"instructions","trial_index":0,"time_elapsed":13387,"internal_node_id":"0.0-0.0","task_version":"prescreen-v0.3"},{"rt":27829.700000047684,"responses":{"age":"23","gender-categorical":"Male","gender-free-response":"","ethnicity":"Not Hispanic or Latino","race":["Asian"],"education":"Some college"},"trial_type":"survey-demo","trial_index":1,"time_elapsed":41219,"internal_node_id":"0.0-1.0","task_version":"prescreen-v0.3"},{"responses":{"Q11":"2","Q14":"2","Q12":"1","Q04":"1","Q15":"2","Q20":"1","Q07":"1","Q18":"1","Q08":"1","Q17":"1","Q19":"1","Q05":"1","Q13":"1","Q09":"1","Q21":"3","Q03":"1","Q16":"1","Q10":"0","Q01":"2","Q02":"1","Q06":"1"},"rt":175770.5,"item_order":[10,13,11,3,14,19,6,17,7,16,18,4,12,8,20,2,15,9,0,1,5],"radio_events":[15596.699999988079,20588.5,25236.69999998808,30930.600000023842,40014.80000001192,42710.80000001192,50389.80000001192,69548,71979.10000002384,77256,105600.30000001192,132861.90000003576,135087.60000002384,137986.90000003576,143573.69999998808,149471.90000003576,156679.90000003576,159962,163972.90000003576,165232,169335,173833.10000002384],"key_events":[],"mouse_events":[15596.699999988079,20588.5,25236.69999998808,30930.600000023842,39522.80000001192,40014.80000001192,42710.80000001192,49861.90000003576,50389.80000001192,69031.69999998808,69548,71979.10000002384,77256,105600.30000001192,132861.90000003576,135087.60000002384,136811,137465.69999998808,137986.90000003576,143573.69999998808,149471.90000003576,156679.90000003576,159962,163972.90000003576,165232,169335,173833.10000002384,175769.19999998808],"straightlining":0.7142857142857143,"zigzagging":0.25,"honeypot":0,"survey":"sns","trial_type":"survey-template","trial_index":2,"time_elapsed":216994,"internal_node_id":"0.0-2.0","task_version":"prescreen-v0.3","browser_interactions":0,"infrequency":0},{"responses":{"Q05":"3","Q02":"2","Q10":"2","Q06":"2","Q04":"3","Q08":"2","Q13":"0","Q12":"1","Q11":"2","Q01":"3","Q03":"3","Q09":"2","Q07":"3"},"rt":113852.5,"item_order":[4,1,9,5,3,7,12,11,10,0,2,8,6],"radio_events":[6577.5,9184.5,12247.5,14762.399999976158,31886.69999998808,62295.89999997616,65676.10000002384,73388.10000002384,92093.39999997616,102233.39999997616,104408.5,107792.39999997616,110667.5,113346.5],"key_events":[],"mouse_events":[6577.5,9184.5,12247.5,14762.399999976158,31886.69999998808,62295.89999997616,65676.10000002384,73388.10000002384,92093.39999997616,102233.39999997616,104408.5,107792.39999997616,110667.5,113346.5,113851.69999998808],"straightlining":0.46153846153846156,"zigzagging":0.6666666666666666,"honeypot":0,"survey":"bisbas","trial_type":"survey-template","trial_index":3,"time_elapsed":330850,"internal_node_id":"0.0-3.0","task_version":"prescreen-v0.3","browser_interactions":2,"infrequency":0},{"responses":{"Q01":"3","Q02":"2","Q03":"1"},"rt":42548.30000001192,"radio_events":[6709.399999976158,13540.399999976158,40841.69999998808,41894.89999997616],"key_events":[],"mouse_events":[6709.399999976158,13540.399999976158,40841.69999998808,41894.89999997616,42547.80000001192],"survey":"map","page":1,"trial_type":"survey-map","trial_index":4,"time_elapsed":373403,"internal_node_id":"0.0-4.0","task_version":"prescreen-v0.3","browser_interactions":0},{"responses":{"Q04":"2","Q05":"1","Q06":"1"},"rt":10385.699999988079,"radio_events":[4466.399999976158,7661.300000011921,9785.300000011921],"key_events":[],"mouse_events":[4466.399999976158,7661.300000011921,9785.300000011921,10385.300000011921],"survey":"map","page":2,"trial_type":"survey-map","trial_index":5,"time_elapsed":383792,"internal_node_id":"0.0-5.0","task_version":"prescreen-v0.3","browser_interactions":0},{"responses":{"Q07":"4","Q08":"2","Q09":"3"},"rt":24643.400000035763,"radio_events":[9872.800000011921,13556.800000011921,15335.900000035763,24029],"key_events":[],"mouse_events":[9369.800000011921,9872.800000011921,13556.800000011921,15335.900000035763,23653.700000047684,24029,24643],"survey":"map","page":3,"trial_type":"survey-map","trial_index":6,"time_elapsed":408438,"internal_node_id":"0.0-6.0","task_version":"prescreen-v0.3","browser_interactions":0},{"responses":{"Q10":"3","Q11":"2","Q12":"1","Q13":"2","Q16":"0","Q14":"2","Q15":"2"},"rt":53886.10000002384,"radio_events":[26010.5,29145.5,32568.30000001192,39061.30000001192,44841.39999997616,47686.5,53320.39999997616],"key_events":[],"mouse_events":[26010.5,29145.5,32140.30000001192,32568.30000001192,39061.30000001192,44841.39999997616,47686.5,53320.39999997616,53885.5],"survey":"map","page":4,"trial_type":"survey-map","trial_index":7,"time_elapsed":462327,"internal_node_id":"0.0-7.0","task_version":"prescreen-v0.3","browser_interactions":0,"infrequency":0},{"view_history":[{"page_index":0,"viewing_time":2476.300000011921},{"page_index":1,"viewing_time":53186.59999996424}],"rt":55663.59999996424,"trial_type":"instructions","trial_index":8,"time_elapsed":517994,"internal_node_id":"0.0-8.0","task_version":"prescreen-v0.3"},{"responses":{"01":"No","02":"No","03":"No","04":"No","05":"No","06":"No"},"rt":22405.899999976158,"item_order":[0,1,2,3,4,5],"radio_events":[12680.199999988079,15608.099999964237,17328.899999976158,18228.099999964237,19626,20979.099999964237],"checkbox_events":[],"key_events":[],"mouse_events":[0.09999996423721313,12680.199999988079,15608.099999964237,17328.899999976158,18228.099999964237,19626,20979.099999964237,22404.19999998808],"honeypot":0,"survey":"mace","page":1,"trial_type":"survey-mace","trial_index":9,"time_elapsed":540405,"internal_node_id":"0.0-9.0","task_version":"prescreen-v0.3","browser_interactions":0},{"responses":{"01":"No","02":"No","03":"No","04":"No","05":"No","06":"No","07":"No","08":"No"},"rt":43983.60000002384,"item_order":[0,1,2,3,4,5,6,7],"radio_events":[2656.300000011921,18459,22251.30000001192,32193.400000035763,35182.30000001192,37918.40000003576,40647.40000003576,42153.5,43609.40000003576],"checkbox_events":[26171.700000047684,27576.400000035763],"key_events":[],"mouse_events":[2656.300000011921,18459,22251.30000001192,26171.700000047684,27576.400000035763,32193.400000035763,35182.30000001192,37918.40000003576,39270.5,40325.30000001192,40647.40000003576,42153.5,43609.40000003576,43981.5],"honeypot":0,"survey":"mace","page":2,"trial_type":"survey-mace","trial_index":10,"time_elapsed":584393,"internal_node_id":"0.0-10.0","task_version":"prescreen-v0.3","browser_interactions":0},{"responses":{"01":"No","02":"No","03":"No","04":"No"},"rt":50912,"item_order":[0,1,2,3],"radio_events":[4306.699999988079,11333.699999988079,11913.699999988079,50426.30000001192],"checkbox_events":[],"key_events":[],"mouse_events":[4306.699999988079,11333.699999988079,11913.699999988079,50426.30000001192,50910.89999997616],"honeypot":0,"survey":"mace","page":3,"trial_type":"survey-mace","trial_index":11,"time_elapsed":635309,"internal_node_id":"0.0-11.0","task_version":"prescreen-v0.3","browser_interactions":0},{"responses":{"01":"No","02":"No"},"rt":7534.599999964237,"item_order":[0,1],"radio_events":[4233.599999964237,6738.599999964237],"checkbox_events":[],"key_events":[],"mouse_events":[4233.599999964237,6738.599999964237,7533.800000011921],"honeypot":0,"survey":"mace","page":4,"trial_type":"survey-mace","trial_index":12,"time_elapsed":642846,"internal_node_id":"0.0-12.0","task_version":"prescreen-v0.3","browser_interactions":0},{"responses":{"01":"No","02":"No","03":"No","04":"No","05":"No"},"rt":11903.199999988079,"item_order":[0,1,2,3,4],"radio_events":[5854.699999988079,6503.899999976158,7509.800000011921,8165.800000011921,8945.800000011921],"checkbox_events":[],"key_events":[],"mouse_events":[5854.699999988079,6503.899999976158,7509.800000011921,8165.800000011921,8478.800000011921,8945.800000011921,11901.800000011921],"honeypot":0,"survey":"mace","page":5,"trial_type":"survey-mace","trial_index":13,"time_elapsed":654754,"internal_node_id":"0.0-13.0","task_version":"prescreen-v0.3","browser_interactions":0},{"responses":{"01":"No","02":"No","03":"No","04":"Yes","04_ages_10":"10","05":"No"},"rt":96779.89999997616,"item_order":[0,1,2,3,4],"radio_events":[7122.5,84935.30000001192,86161.30000001192,86794.30000001192,88027.30000001192,90317.30000001192],"checkbox_events":[92792.5,93082.30000001192,93378.39999997616,93954.30000001192,94593.5,95042.39999997616,96119.39999997616],"key_events":[],"mouse_events":[7122.5,84935.30000001192,85637.30000001192,86161.30000001192,86794.30000001192,88027.30000001192,90317.30000001192,92792.5,93082.30000001192,93378.39999997616,93954.30000001192,94250.30000001192,94593.5,95042.39999997616,96119.39999997616,96778.5],"honeypot":0,"survey":"mace","page":6,"trial_type":"survey-mace","trial_index":14,"time_elapsed":751538,"internal_node_id":"0.0-14.0","task_version":"prescreen-v0.3","browser_interactions":2},{"responses":{"01":"No","02":"No","03":"No","04":"No","05":"No","06":"No","07":"No"},"rt":70412.10000002384,"item_order":[0,1,2,3,4,5,6],"radio_events":[7992.400000035763,66182,66699.20000004768,68020,68486,69193,69843],"checkbox_events":[],"key_events":[],"mouse_events":[7992.400000035763,66182,66699.20000004768,68020,68486,69193,69843,70410.10000002384],"honeypot":0,"survey":"mace","page":7,"trial_type":"survey-mace","trial_index":15,"time_elapsed":821954,"internal_node_id":"0.0-15.0","task_version":"prescreen-v0.3","browser_interactions":2},{"responses":{"01":"No","02":"No","03":"No","04":"No"},"rt":46667.200000047684,"item_order":[0,1,2,3],"radio_events":[33033.80000001192,43047,43775,45422.10000002384],"checkbox_events":[],"key_events":[],"mouse_events":[33033.80000001192,43047,43775,45022.10000002384,45422.10000002384,46666.200000047684],"honeypot":0,"survey":"mace","page":8,"trial_type":"survey-mace","trial_index":16,"time_elapsed":868626,"internal_node_id":"0.0-16.0","task_version":"prescreen-v0.3","browser_interactions":0},{"responses":{"01":"Yes","01_ages_1":"1","01_ages_2":"2","01_ages_3":"3","01_ages_4":"4","01_ages_5":"5","01_ages_6":"6","01_ages_7":"7","01_ages_8":"8","01_ages_9":"9","01_ages_10":"10","01_ages_11":"11","01_ages_12":"12","01_ages_13":"13","01_ages_14":"14","01_ages_15":"15","01_ages_16":"16","01_ages_17":"17","01_ages_18":"18","02":"Yes","02_ages_1":"1","02_ages_2":"2","02_ages_3":"3","02_ages_4":"4","02_ages_5":"5","02_ages_6":"6","02_ages_7":"7","02_ages_8":"8","02_ages_9":"9","02_ages_10":"10","02_ages_11":"11","02_ages_12":"12","02_ages_13":"13","02_ages_14":"14","02_ages_15":"15","02_ages_16":"16","02_ages_17":"17","02_ages_18":"18","03":"Yes","03_ages_1":"1","03_ages_2":"2","03_ages_3":"3","03_ages_4":"4","03_ages_5":"5","03_ages_6":"6","03_ages_7":"7","03_ages_8":"8","03_ages_9":"9","03_ages_10":"10","03_ages_11":"11","03_ages_12":"12","03_ages_13":"13","03_ages_14":"14","03_ages_15":"15","03_ages_16":"16","03_ages_17":"17","03_ages_18":"18","04":"Yes","04_ages_10":"10"},"rt":288636.6999999881,"item_order":[0,1,2,3],"radio_events":[16350.300000011921,84729,139960.59999996424,140747.59999996424],"checkbox_events":[69274.89999997616,69847,70164.89999997616,70491.89999997616,70870.80000001192,71237.89999997616,71585.89999997616,72506.89999997616,74911.89999997616,75325.89999997616,75997,76383.89999997616,77111,77518.09999996424,78057.09999996424,78363.80000001192,78676.09999996424,79026,88189.09999996424,88549.19999998808,88895.89999997616,89392,89842.89999997616,90188.19999998808,90539.19999998808,91034.89999997616,91584.19999998808,96085.19999998808,96452.19999998808,96876.19999998808,97205.30000001192,97539.19999998808,97913.19999998808,98594.19999998808,98951.19999998808,99297.30000001192,265184,266196,266447.09999996424,267432,267697,268034.8000000119,268402.6999999881,268834.09999996424,269224.89999997616,269623.09999996424,269901,270845,271153.09999996424,271585.09999996424,271966.09999996424,272313,272664,272993.89999997616,278421.1999999881,278897.1999999881,279680.09999996424,280077.1999999881,281209.09999996424,281488.09999996424,281771.1999999881,282069.09999996424,286847.09999996424],"key_events":[],"mouse_events":[16350.300000011921,69274.89999997616,69585.69999998808,69847,70164.89999997616,70491.89999997616,70870.80000001192,71237.89999997616,71585.89999997616,72506.89999997616,74911.89999997616,75325.89999997616,75640,75997,76383.89999997616,77111,77518.09999996424,78057.09999996424,78363.80000001192,78676.09999996424,79026,84729,88189.09999996424,88549.19999998808,88895.89999997616,89392,89842.89999997616,90188.19999998808,90539.19999998808,91034.89999997616,91584.19999998808,96085.19999998808,96452.19999998808,96876.19999998808,97205.30000001192,97539.19999998808,97913.19999998808,98297.09999996424,98594.19999998808,98951.19999998808,99297.30000001192,139960.59999996424,140747.59999996424,265184,265543.09999996424,266196,266447.09999996424,266903,267432,267697,268034.8000000119,268402.6999999881,268834.09999996424,269224.89999997616,269623.09999996424,269901,270348.1999999881,270845,271153.09999996424,271585.09999996424,271966.09999996424,272313,272664,272993.89999997616,278421.1999999881,278897.1999999881,279680.09999996424,280077.1999999881,281209.09999996424,281488.09999996424,281771.1999999881,282069.09999996424,286847.09999996424,288635.5],"honeypot":0,"survey":"mace","page":9,"trial_type":"survey-mace","trial_index":17,"time_elapsed":1157266,"internal_node_id":"0.0-17.0","task_version":"prescreen-v0.3","browser_interactions":0},{"responses":{"01":"No","02":"No","03":"No","04":"No","05":"No","06":"Yes","06_ages_17":"17","07":"Yes","07_ages_1":"1","07_ages_2":"2","07_ages_3":"3","07_ages_4":"4","07_ages_5":"5","07_ages_6":"6","07_ages_7":"7","07_ages_8":"8","07_ages_9":"9","07_ages_10":"10","07_ages_11":"11","07_ages_12":"12","07_ages_13":"13","07_ages_14":"14","07_ages_15":"15","07_ages_16":"16","07_ages_17":"17","07_ages_18":"18","08":"Yes","08_ages_1":"1","08_ages_2":"2","08_ages_3":"3","08_ages_4":"4","08_ages_5":"5","08_ages_6":"6","08_ages_7":"7","08_ages_8":"8","08_ages_9":"9","08_ages_10":"10","08_ages_11":"11","08_ages_12":"12","08_ages_13":"13","08_ages_14":"14","08_ages_15":"15","08_ages_16":"16","08_ages_17":"17","08_ages_18":"18"},"rt":69347.39999997616,"item_order":[0,1,2,3,4,5,6,7],"radio_events":[25818.799999952316,26867.799999952316,28700.799999952316,29304.69999998808,31297.799999952316,37183.89999997616,43922.89999997616,61664.09999996424],"checkbox_events":[38695.799999952316,52654.89999997616,52937.19999998808,53271,53597,53977,54521.09999996424,55103.19999998808,55625.19999998808,56028.799999952316,56344.799999952316,56636.19999998808,57286.09999996424,57653.09999996424,58218,58664.09999996424,59022.89999997616,59347.09999996424,59717.09999996424,62815.09999996424,63134.09999996424,63597.19999998808,64038.09999996424,64377.19999998808,65159.19999998808,65428.09999996424,65864.19999998808,66207.09999996424,66738.09999996424,67008.19999998808,67354.09999996424,67634.19999998808,67912.19999998808,68205.09999996424,68462.19999998808,68752.19999998808,68998.09999996424],"key_events":[],"mouse_events":[25818.799999952316,26867.799999952316,27946.799999952316,28700.799999952316,29304.69999998808,31297.799999952316,37183.89999997616,38695.799999952316,39037.89999997616,43922.89999997616,52654.89999997616,52937.19999998808,53271,53597,53977,54521.09999996424,55103.19999998808,55625.19999998808,56028.799999952316,56344.799999952316,56636.19999998808,56965.09999996424,57286.09999996424,57653.09999996424,58218,58664.09999996424,59022.89999997616,59347.09999996424,59717.09999996424,61664.09999996424,62815.09999996424,63134.09999996424,63597.19999998808,64038.09999996424,64377.19999998808,64747.39999997616,65159.19999998808,65428.09999996424,65864.19999998808,66207.09999996424,66738.09999996424,67008.19999998808,67354.09999996424,67634.19999998808,67912.19999998808,68205.09999996424,68462.19999998808,68752.19999998808,68998.09999996424,69345.39999997616],"honeypot":0,"survey":"mace","page":10,"trial_type":"survey-mace","trial_index":18,"time_elapsed":1226618,"internal_node_id":"0.0-18.0","task_version":"prescreen-v0.3","browser_interactions":0,"instructed":0},{"rt":1902.4000000357628,"trial_type":"mental-health-alert","trial_index":19,"time_elapsed":1228524,"internal_node_id":"0.0-19.0","task_version":"prescreen-v0.3","interactions":"[{\"event\":\"blur\",\"trial\":3,\"time\":291889},{\"event\":\"focus\",\"trial\":3,\"time\":295654},{\"event\":\"blur\",\"trial\":14,\"time\":667156},{\"event\":\"focus\",\"trial\":14,\"time\":738355},{\"event\":\"blur\",\"trial\":15,\"time\":765328},{\"event\":\"focus\",\"trial\":15,\"time\":815590}]"}]