[{"view_history":[{"page_index":0,"viewing_time":10280.09999999404},{"page_index":1,"viewing_time":4979.9000000059605},{"page_index":2,"viewing_time":4346.0999999940395},{"page_index":3,"viewing_time":2819.4000000059605}],"rt":22426.90000000596,"trial_type":"instructions","trial_index":0,"time_elapsed":22458,"internal_node_id":"0.0-0.0","task_version":"prescreen-v0.3"},{"rt":35353.79999998212,"responses":{"age":"31","gender-categorical":"Male","gender-free-response":"","ethnicity":"Not Hispanic or Latino","race":["White"],"education":"Bachelor degree"},"trial_type":"survey-demo","trial_index":1,"time_elapsed":57827,"internal_node_id":"0.0-1.0","task_version":"prescreen-v0.3"},{"responses":{"Q20":"1","Q13":"1","Q05":"1","Q10":"1","Q21":"3","Q16":"1","Q19":"1","Q06":"0","Q07":"1","Q17":"1","Q04":"0","Q02":"0","Q11":"0","Q14":"2","Q03":"0","Q18":"0","Q08":"2","Q09":"1","Q15":"1","Q01":"1","Q12":"1"},"rt":209390.80000001192,"item_order":[19,12,4,9,20,15,18,5,6,16,3,1,10,13,2,17,7,8,14,0,11],"radio_events":[28870.90000000596,33763.20000001788,43234.59999999404,49287.5,55534.30000001192,64907,83914.70000001788,92060.5,102144.20000001788,103982.09999999404,119583.40000000596,127069.20000001788,138290.80000001192,142482.20000001788,147093.90000000596,150839.59999999404,156478.59999999404,166882.70000001788,170582.90000000596,175139.59999999404,182537.5,190537.70000001788,195351.70000001788,207798.30000001192],"key_events":[],"mouse_events":[28870.90000000596,33763.20000001788,43234.59999999404,49287.5,55534.30000001192,63927.5,64907,83914.70000001788,92060.5,102144.20000001788,103982.09999999404,119583.40000000596,127069.20000001788,138290.80000001192,142482.20000001788,147093.90000000596,150839.59999999404,156478.59999999404,166882.70000001788,170582.90000000596,175139.59999999404,182537.5,189358.5,190537.70000001788,194205.59999999404,195351.70000001788,207798.30000001192,209386.09999999404],"straightlining":0.5714285714285714,"zigzagging":0.2,"honeypot":0,"survey":"sns","trial_type":"survey-template","trial_index":2,"time_elapsed":267232,"internal_node_id":"0.0-2.0","task_version":"prescreen-v0.3","browser_interactions":0,"infrequency":0},{"responses":{"Q09":"2","Q07":"3","Q04":"3","Q01":"2","Q02":"2","Q03":"2","Q11":"3","Q05":"3","Q12":"2","Q08":"3","Q10":"2","Q06":"3","Q13":"0"},"rt":105140.70000001788,"item_order":[8,6,3,0,1,2,10,4,11,7,9,5,12],"radio_events":[9328.700000017881,12579.800000011921,17694.5,23022.100000023842,27276.90000000596,31165.80000001192,35925.30000001192,41039.10000002384,45718.5,52783.30000001192,59937.40000000596,65942,79991.30000001192,84850.20000001788,100762.10000002384],"key_events":[],"mouse_events":[9328.700000017881,12579.800000011921,17694.5,19911.70000001788,23022.100000023842,27276.90000000596,31165.80000001192,34230.80000001192,35187.60000002384,35925.30000001192,41039.10000002384,43558.80000001192,45718.5,52783.30000001192,58578,59937.40000000596,65942,79991.30000001192,83468.60000002384,84850.20000001788,89914,100762.10000002384,105137.80000001192],"straightlining":0.46153846153846156,"zigzagging":0.6666666666666666,"honeypot":0,"survey":"bisbas","trial_type":"survey-template","trial_index":3,"time_elapsed":372382,"internal_node_id":"0.0-3.0","task_version":"prescreen-v0.3","browser_interactions":0,"infrequency":0},{"responses":{"Q01":"2","Q02":"2","Q03":"3"},"rt":39925.19999998808,"radio_events":[16348.59999999404,27078.90000000596,37739.5],"key_events":[],"mouse_events":[16348.59999999404,27078.90000000596,36448.29999998212,37739.5,39923.59999999404],"survey":"map","page":1,"trial_type":"survey-map","trial_index":4,"time_elapsed":412317,"internal_node_id":"0.0-4.0","task_version":"prescreen-v0.3","browser_interactions":0},{"responses":{"Q04":"3","Q05":"2","Q06":"3"},"rt":36910.09999999404,"radio_events":[15405.09999999404,30147,35651.19999998808],"key_events":[],"mouse_events":[2691.300000011921,15405.09999999404,30147,35651.19999998808,36908.90000000596],"survey":"map","page":2,"trial_type":"survey-map","trial_index":5,"time_elapsed":449232,"internal_node_id":"0.0-5.0","task_version":"prescreen-v0.3","browser_interactions":0},{"responses":{"Q07":"3","Q08":"3","Q09":"3"},"rt":22547.19999998808,"radio_events":[10614.699999988079,14891.09999999404,16105.199999988079,21364.5],"key_events":[],"mouse_events":[10614.699999988079,14891.09999999404,16105.199999988079,21364.5,22545.899999976158],"survey":"map","page":3,"trial_type":"survey-map","trial_index":6,"time_elapsed":471784,"internal_node_id":"0.0-6.0","task_version":"prescreen-v0.3","browser_interactions":0},{"responses":{"Q10":"4","Q11":"3","Q12":"2","Q13":"3","Q16":"0","Q14":"3","Q15":"3"},"rt":90435.59999999404,"radio_events":[32140.09999999404,40630.59999999404,48942.79999998212,52098.69999998808,57791.09999999404,59593.29999998212,71439.5,80455.40000000596,88988.40000000596],"key_events":[],"mouse_events":[32140.09999999404,40630.59999999404,48942.79999998212,52098.69999998808,57791.09999999404,59593.29999998212,71439.5,80455.40000000596,88988.40000000596,90433.09999999404],"survey":"map","page":4,"trial_type":"survey-map","trial_index":7,"time_elapsed":562227,"internal_node_id":"0.0-7.0","task_version":"prescreen-v0.3","browser_interactions":0,"infrequency":0},{"view_history":[{"page_index":0,"viewing_time":6126.299999982119},{"page_index":1,"viewing_time":14817}],"rt":20943.69999998808,"trial_type":"instructions","trial_index":8,"time_elapsed":583174,"internal_node_id":"0.0-8.0","task_version":"prescreen-v0.3"},{"responses":{"01":"Yes","01_ages_15":"15","02":"No","03":"No","04":"No","05":"No","06":"No"},"rt":84615.19999998808,"item_order":[0,1,2,3,4,5],"radio_events":[21105.79999998212,68340.59999999404,76621.59999999404,82835.29999998212,83314.09999999404,83905.19999998808],"checkbox_events":[37234.19999998808,38400.90000000596,43158.09999999404,44440.40000000596,47092.79999998212,48284.79999998212,58102.09999999404],"key_events":[],"mouse_events":[0.19999998807907104,21105.79999998212,37234.19999998808,38400.90000000596,43158.09999999404,44440.40000000596,47092.79999998212,48284.79999998212,58102.09999999404,68340.59999999404,76621.59999999404,82835.29999998212,83314.09999999404,83905.19999998808,84608.29999998212],"honeypot":0,"survey":"mace","page":1,"trial_type":"survey-mace","trial_index":9,"time_elapsed":667803,"internal_node_id":"0.0-9.0","task_version":"prescreen-v0.3","browser_interactions":0},{"responses":{"01":"No","02":"No","03":"No","04":"No","05":"No","06":"No","07":"No","08":"No"},"rt":46230.40000000596,"item_order":[0,1,2,3,4,5,6,7],"radio_events":[26812.09999999404,27427.09999999404,27902.40000000596,28482.90000000596,29120.5,29641.59999999404,30291.09999999404,30833.19999998808],"checkbox_events":[],"key_events":[],"mouse_events":[26812.09999999404,27427.09999999404,27902.40000000596,28482.90000000596,29120.5,29641.59999999404,30291.09999999404,30833.19999998808,46221.59999999404],"honeypot":0,"survey":"mace","page":2,"trial_type":"survey-mace","trial_index":10,"time_elapsed":714046,"internal_node_id":"0.0-10.0","task_version":"prescreen-v0.3","browser_interactions":0},{"responses":{"01":"No","02":"No","03":"No","04":"No"},"rt":17620.09999999404,"item_order":[0,1,2,3],"radio_events":[13472.800000011921,14563.90000000596,14998.800000011921,16621.40000000596],"checkbox_events":[],"key_events":[],"mouse_events":[13472.800000011921,13997.800000011921,14563.90000000596,14998.800000011921,15668.199999988079,16621.40000000596,17610.40000000596],"honeypot":0,"survey":"mace","page":3,"trial_type":"survey-mace","trial_index":11,"time_elapsed":731681,"internal_node_id":"0.0-11.0","task_version":"prescreen-v0.3","browser_interactions":0},{"responses":{"01":"No","02":"No"},"rt":12944.5,"item_order":[0,1],"radio_events":[11358.299999982119,11915.299999982119],"checkbox_events":[],"key_events":[],"mouse_events":[11358.299999982119,11915.299999982119,12942.09999999404],"honeypot":0,"survey":"mace","page":4,"trial_type":"survey-mace","trial_index":12,"time_elapsed":744635,"internal_node_id":"0.0-12.0","task_version":"prescreen-v0.3","browser_interactions":0},{"responses":{"01":"No","02":"No","03":"No","04":"No","05":"No"},"rt":39787.09999999404,"item_order":[0,1,2,3,4],"radio_events":[36235.19999998808,36646.80000001192,37226.59999999404,37751,38141.19999998808],"checkbox_events":[],"key_events":[],"mouse_events":[36235.19999998808,36646.80000001192,37226.59999999404,37751,38141.19999998808,39781.40000000596],"honeypot":0,"survey":"mace","page":5,"trial_type":"survey-mace","trial_index":13,"time_elapsed":784431,"internal_node_id":"0.0-13.0","task_version":"prescreen-v0.3","browser_interactions":0},{"responses":{"01":"Yes","01_ages_15":"15","02":"No","03":"No","04":"No","05":"No"},"rt":43157.90000000596,"item_order":[0,1,2,3,4],"radio_events":[18759,37781.5,38526.90000000596,39217.59999999404,39997.80000001192],"checkbox_events":[20889.20000001788],"key_events":[],"mouse_events":[18759,20889.20000001788,37781.5,38526.90000000596,39217.59999999404,39997.80000001192,40811.59999999404,43152.20000001788],"honeypot":0,"survey":"mace","page":6,"trial_type":"survey-mace","trial_index":14,"time_elapsed":827598,"internal_node_id":"0.0-14.0","task_version":"prescreen-v0.3","browser_interactions":0},{"responses":{"01":"No","02":"No","03":"No","04":"No","05":"No","06":"No","07":"No"},"rt":23802.59999999404,"item_order":[0,1,2,3,4,5,6],"radio_events":[15326.300000011921,18769.30000001192,19448.80000001192,20953,21565.90000000596,22190.20000001788,22926.5],"checkbox_events":[],"key_events":[],"mouse_events":[15326.300000011921,15906.40000000596,16740,17475.70000001788,18088.5,18769.30000001192,19448.80000001192,20207,20953,21565.90000000596,22190.20000001788,22926.5,23794.59999999404],"honeypot":0,"survey":"mace","page":7,"trial_type":"survey-mace","trial_index":15,"time_elapsed":851414,"internal_node_id":"0.0-15.0","task_version":"prescreen-v0.3","browser_interactions":0},{"responses":{"01":"No","02":"No","03":"No","04":"No"},"rt":32319.20000001788,"item_order":[0,1,2,3],"radio_events":[29952.70000001788,30375.20000001788,31011.30000001192,31591.40000000596],"checkbox_events":[],"key_events":[],"mouse_events":[29952.70000001788,30375.20000001788,31011.30000001192,31591.40000000596,32314.80000001192],"honeypot":0,"survey":"mace","page":8,"trial_type":"survey-mace","trial_index":16,"time_elapsed":883742,"internal_node_id":"0.0-16.0","task_version":"prescreen-v0.3","browser_interactions":0},{"responses":{"01":"Yes","01_ages_16":"16","01_ages_17":"17","01_ages_18":"18","02":"Yes","02_ages_16":"16","02_ages_17":"17","02_ages_18":"18","03":"Yes","03_ages_10":"10","03_ages_11":"11","03_ages_12":"12","03_ages_13":"13","03_ages_14":"14","03_ages_15":"15","03_ages_16":"16","03_ages_17":"17","03_ages_18":"18","04":"Yes","04_ages_16":"16"},"rt":136555.59999999404,"item_order":[0,1,2,3],"radio_events":[22860.90000000596,33304.5,40101.69999998808,132182.59999999404],"checkbox_events":[30485.69999998808,35969.30000001192,43957.19999998808,44602.69999998808,68538.80000001192,69328,70042.09999999404,71611.30000001192,72380.59999999404,73953.30000001192,74943.30000001192,75443.80000001192,80793.59999999404,81494.40000000596,82543.19999998808,83404.19999998808,87033.80000001192,87991.30000001192,94080.80000001192,94463.40000000596,95568.59999999404,96604.5,97340,107334.19999998808,110844.19999998808,111780.09999999404,112531.40000000596,134467.90000000596],"key_events":[],"mouse_events":[22860.90000000596,30485.69999998808,33304.5,35969.30000001192,40101.69999998808,43957.19999998808,44602.69999998808,68538.80000001192,69328,70042.09999999404,70698.69999998808,71611.30000001192,72380.59999999404,73953.30000001192,74943.30000001192,75443.80000001192,80793.59999999404,81494.40000000596,82543.19999998808,83404.19999998808,87033.80000001192,87991.30000001192,94080.80000001192,94463.40000000596,95568.59999999404,96604.5,97340,107334.19999998808,110844.19999998808,111780.09999999404,112531.40000000596,132182.59999999404,134467.90000000596,136551],"honeypot":0,"survey":"mace","page":9,"trial_type":"survey-mace","trial_index":17,"time_elapsed":1020307,"internal_node_id":"0.0-17.0","task_version":"prescreen-v0.3","browser_interactions":0},{"responses":{"01":"Yes","01_ages_1":"1","01_ages_2":"2","01_ages_3":"3","01_ages_4":"4","01_ages_5":"5","01_ages_6":"6","01_ages_7":"7","01_ages_8":"8","01_ages_9":"9","01_ages_10":"10","01_ages_11":"11","01_ages_12":"12","01_ages_13":"13","01_ages_14":"14","01_ages_15":"15","01_ages_16":"16","01_ages_17":"17","01_ages_18":"18","02":"No","03":"Yes","03_ages_16":"16","03_ages_17":"17","03_ages_18":"18","04":"No","05":"Yes","05_ages_16":"16","05_ages_17":"17","05_ages_18":"18","06":"Yes","06_ages_17":"17","07":"Yes","07_ages_1":"1","07_ages_2":"2","07_ages_3":"3","07_ages_4":"4","07_ages_5":"5","07_ages_6":"6","07_ages_7":"7","07_ages_8":"8","07_ages_9":"9","07_ages_10":"10","07_ages_11":"11","07_ages_12":"12","07_ages_13":"13","07_ages_14":"14","07_ages_15":"15","07_ages_16":"16","07_ages_17":"17","07_ages_18":"18","08":"Yes","08_ages_1":"1","08_ages_2":"2","08_ages_3":"3","08_ages_4":"4","08_ages_5":"5","08_ages_6":"6","08_ages_7":"7","08_ages_8":"8","08_ages_9":"9","08_ages_10":"10","08_ages_11":"11","08_ages_12":"12","08_ages_13":"13","08_ages_14":"14","08_ages_15":"15","08_ages_16":"16","08_ages_17":"17","08_ages_18":"18"},"rt":149147.40000000596,"item_order":[0,1,2,3,4,5,6,7],"radio_events":[4153.300000011921,34015.80000001192,42627.70000001788,54004.09999999404,62705.20000001788,74315.90000000596,81462.40000000596,129950.09999999404],"checkbox_events":[9991.90000000596,11081.800000011921,12287.300000011921,12965,13633.800000011921,14281.59999999404,14993.800000011921,15729.800000011921,16454.80000001192,17167.90000000596,18023.70000001788,18859.59999999404,19617.30000001192,20252.20000001788,20899.20000001788,21601.59999999404,23940.90000000596,30441.30000001192,44121.20000001788,44845.59999999404,45650.59999999404,63997.59999999404,65592.40000000596,66327.70000001788,67195,68001.90000000596,76253.90000000596,83956.30000001192,84610.59999999404,85268.80000001192,85883.20000001788,86718.20000001788,87542.5,88234.09999999404,88901,89515.59999999404,90105.20000001788,90447.80000001192,91308.80000001192,91774.5,92433.40000000596,93002.90000000596,93369,96511.40000000596,97268,99097.40000000596,100727.30000001192,134856,135533.59999999404,136110.20000001788,136668.09999999404,137383.40000000596,137727,138419,140323.20000001788,140892,141425.30000001192,141971.20000001788,142586.70000001788,144346.90000000596,144768.5,145191.40000000596,145671.30000001192,146072.30000001192,146430.5,147734.5,148168.40000000596],"key_events":[],"mouse_events":[4153.300000011921,9991.90000000596,11081.800000011921,12287.300000011921,12965,13633.800000011921,14281.59999999404,14993.800000011921,15729.800000011921,16454.80000001192,17167.90000000596,18023.70000001788,18859.59999999404,19617.30000001192,20252.20000001788,20899.20000001788,21601.59999999404,22237.09999999404,23940.90000000596,30441.30000001192,34015.80000001192,42627.70000001788,44121.20000001788,44845.59999999404,45650.59999999404,54004.09999999404,62705.20000001788,63997.59999999404,65592.40000000596,66327.70000001788,67195,68001.90000000596,74315.90000000596,76253.90000000596,81462.40000000596,83956.30000001192,84610.59999999404,85268.80000001192,85883.20000001788,86718.20000001788,87542.5,88234.09999999404,88901,89515.59999999404,90105.20000001788,90447.80000001192,91308.80000001192,91774.5,92433.40000000596,93002.90000000596,93369,94029.20000001788,96511.40000000596,97268,98184.5,99097.40000000596,99914.59999999404,100727.30000001192,127968,129950.09999999404,134856,135533.59999999404,136110.20000001788,136668.09999999404,137383.40000000596,137727,138419,140323.20000001788,140892,141425.30000001192,141971.20000001788,142586.70000001788,144346.90000000596,144768.5,145191.40000000596,145671.30000001192,146072.30000001192,146430.5,147734.5,148168.40000000596,149138.70000001788],"honeypot":0,"survey":"mace","page":10,"trial_type":"survey-mace","trial_index":18,"time_elapsed":1169468,"internal_node_id":"0.0-18.0","task_version":"prescreen-v0.3","browser_interactions":0,"instructed":0},{"rt":25430.09999999404,"trial_type":"mental-health-alert","trial_index":19,"time_elapsed":1194905,"internal_node_id":"0.0-19.0","task_version":"prescreen-v0.3","interactions":"[]"}]