[{"view_history":[{"page_index":0,"viewing_time":2448.800000011921},{"page_index":1,"viewing_time":2129.899999976158},{"page_index":2,"viewing_time":4697.100000023842},{"page_index":3,"viewing_time":1044.8999999761581}],"rt":10321.199999988079,"trial_type":"instructions","trial_index":0,"time_elapsed":10332,"internal_node_id":"0.0-0.0","task_version":"prescreen-v0.3"},{"rt":15253.300000011921,"responses":{"age":"23","gender-categorical":"Male","gender-free-response":"","ethnicity":"Not Hispanic or Latino","race":["White"],"education":"Bachelor degree"},"trial_type":"survey-demo","trial_index":1,"time_elapsed":25589,"internal_node_id":"0.0-1.0","task_version":"prescreen-v0.3"},{"responses":{"Q16":"3","Q06":"1","Q09":"2","Q10":"1","Q15":"3","Q05":"0","Q04":"2","Q11":"1","Q17":"0","Q12":"2","Q13":"2","Q02":"1","Q18":"3","Q20":"0","Q19":"2","Q07":"0","Q03":"2","Q01":"1","Q14":"3","Q08":"2","Q21":"3"},"rt":98157.5,"item_order":[15,5,8,9,14,4,3,10,16,11,12,1,17,19,18,6,2,0,13,7,20],"radio_events":[8228.899999976158,13048.300000011921,17968.399999976158,22680.30000001192,29274.5,38285.19999998808,43574.39999997616,49134.19999998808,49877.09999996424,53820.59999996424,57412.09999996424,61786.39999997616,65205.19999998808,67933.59999996424,75846.30000001192,79548.39999997616,84556.30000001192,86893.19999998808,91227.89999997616,92965.19999998808,97077.19999998808],"key_events":[8228.899999976158,12476.300000011921,13048.300000011921,17968.399999976158,22680.30000001192,27131.399999976158,27456,27855.19999998808,28197.099999964237,28466.399999976158,28707.099999964237,29274.5,36787.5,38285.19999998808,42226.09999996424,42607.19999998808,43228.09999996424,43574.39999997616,45875.19999998808,47161.19999998808,49134.19999998808,49877.09999996424,53820.59999996424,57412.09999996424,61786.39999997616,65205.19999998808,67576,67933.59999996424,75846.30000001192,79548.39999997616,84556.30000001192,86893.19999998808,91227.89999997616,92965.19999998808,97077.19999998808,98156.30000001192],"mouse_events":[],"straightlining":0.3333333333333333,"zigzagging":0.5,"honeypot":0,"survey":"sns","trial_type":"survey-template","trial_index":2,"time_elapsed":123751,"internal_node_id":"0.0-2.0","task_version":"prescreen-v0.3","browser_interactions":0,"infrequency":0},{"responses":{"Q01":"3","Q03":"3","Q13":"0","Q04":"3","Q09":"1","Q02":"2","Q06":"2","Q08":"2","Q11":"1","Q07":"2","Q12":"0","Q05":"2","Q10":"0"},"rt":47919.89999997616,"item_order":[0,2,12,3,8,1,5,7,10,6,11,4,9],"radio_events":[9383.099999964237,10110.5,12193.299999952316,15279.199999988079,19299.399999976158,21753.299999952316,25579.299999952316,28370.299999952316,31383.299999952316,34318.19999998808,37380.19999998808,39969.39999997616,43835.299999952316],"key_events":[4002.199999988079,9383.099999964237,10110.5,12193.299999952316,15279.199999988079,19299.399999976158,21753.299999952316,25579.299999952316,28370.299999952316,31383.299999952316,33302.299999952316,34318.19999998808,37380.19999998808,39969.39999997616,42325.299999952316,43479.09999996424,43835.299999952316,47919.19999998808],"mouse_events":[],"straightlining":0.38461538461538464,"zigzagging":0.4166666666666667,"honeypot":0,"survey":"bisbas","trial_type":"survey-template","trial_index":3,"time_elapsed":171675,"internal_node_id":"0.0-3.0","task_version":"prescreen-v0.3","browser_interactions":0,"infrequency":0},{"responses":{"Q01":"4","Q02":"3","Q03":"3"},"rt":19155.900000035763,"radio_events":[7634.800000011921,13487.900000035763,18413.5],"key_events":[7634.800000011921,13487.900000035763,17723.5,18064.80000001192,18413.5,19155.600000023842],"mouse_events":[],"survey":"map","page":1,"trial_type":"survey-map","trial_index":4,"time_elapsed":190834,"internal_node_id":"0.0-4.0","task_version":"prescreen-v0.3","browser_interactions":0},{"responses":{"Q04":"2","Q05":"2","Q06":"1"},"rt":12721.099999964237,"radio_events":[3737.199999988079,4683.599999964237,7737.099999964237,11778.099999964237],"key_events":[3737.199999988079,4683.599999964237,7737.099999964237,11482.5,11778.099999964237,12720.799999952316],"mouse_events":[],"survey":"map","page":2,"trial_type":"survey-map","trial_index":5,"time_elapsed":203558,"internal_node_id":"0.0-5.0","task_version":"prescreen-v0.3","browser_interactions":0},{"responses":{"Q07":"3","Q08":"4","Q09":"2"},"rt":13849,"radio_events":[4184.599999964237,7689.599999964237,9611.5,13034.899999976158],"key_events":[4184.599999964237,7689.599999964237,9230.799999952316,9611.5,13034.899999976158,13848.599999964237],"mouse_events":[],"survey":"map","page":3,"trial_type":"survey-map","trial_index":6,"time_elapsed":217410,"internal_node_id":"0.0-6.0","task_version":"prescreen-v0.3","browser_interactions":0},{"responses":{"Q10":"3","Q11":"1","Q12":"2","Q13":"2","Q16":"0","Q14":"2","Q15":"1"},"rt":40817.69999998808,"radio_events":[4039.699999988079,6695.800000011921,7806.800000011921,12555.600000023842,13522.600000023842,17567.69999998808,21076.69999998808,26487.600000023842,30092.80000001192,39765.80000001192],"key_events":[4039.699999988079,6190.600000023842,6695.800000011921,7806.800000011921,12555.600000023842,13522.600000023842,17567.69999998808,20380.69999998808,21076.69999998808,25882.80000001192,26487.600000023842,29711.600000023842,30092.80000001192,39312.69999998808,39765.80000001192,40817.10000002384],"mouse_events":[],"survey":"map","page":4,"trial_type":"survey-map","trial_index":7,"time_elapsed":258231,"internal_node_id":"0.0-7.0","task_version":"prescreen-v0.3","browser_interactions":0,"infrequency":0},{"view_history":[{"page_index":0,"viewing_time":3154.199999988079},{"page_index":1,"viewing_time":4995}],"rt":8149.800000011921,"trial_type":"instructions","trial_index":8,"time_elapsed":266383,"internal_node_id":"0.0-8.0","task_version":"prescreen-v0.3"},{"responses":{"01":"Yes","01_ages_3":"3","01_ages_4":"4","01_ages_5":"5","01_ages_6":"6","01_ages_7":"7","01_ages_8":"8","01_ages_9":"9","01_ages_10":"10","01_ages_11":"11","01_ages_12":"12","01_ages_13":"13","01_ages_14":"14","01_ages_15":"15","01_ages_16":"16","01_ages_17":"17","01_ages_18":"18","02":"Yes","02_ages_3":"3","02_ages_4":"4","02_ages_5":"5","02_ages_6":"6","02_ages_7":"7","02_ages_8":"8","02_ages_9":"9","02_ages_10":"10","02_ages_11":"11","02_ages_12":"12","02_ages_13":"13","02_ages_14":"14","02_ages_15":"15","02_ages_16":"16","02_ages_17":"17","02_ages_18":"18","03":"Yes","03_ages_3":"3","03_ages_4":"4","03_ages_5":"5","03_ages_6":"6","03_ages_7":"7","03_ages_8":"8","04":"Yes","04_ages_3":"3","04_ages_4":"4","04_ages_5":"5","04_ages_6":"6","04_ages_7":"7","04_ages_8":"8","04_ages_9":"9","04_ages_10":"10","04_ages_11":"11","04_ages_12":"12","04_ages_16":"16","05":"No","06":"Yes","06_ages_3":"3","06_ages_4":"4","06_ages_5":"5","06_ages_6":"6","06_ages_15":"15","06_ages_16":"16"},"rt":87221.19999998808,"item_order":[0,1,2,3,4,5],"radio_events":[7660.699999988079,25662.19999998808,40150.60000002384,50625.30000001192,63114.40000003576,66734.40000003576],"checkbox_events":[11357,12049.5,12592.400000035763,13266.5,13890.400000035763,14891.5,15937.699999988079,16617.400000035763,17077.400000035763,17481.5,18156.30000001192,18523.5,19245.69999998808,20049.600000023842,20421.400000035763,22473.400000035763,26850.5,27319.5,27775.400000035763,28394.600000023842,29036.5,29436.30000001192,29855.5,30625.400000035763,31049.5,32330.400000035763,32984.5,33626.60000002384,34244.40000003576,34903.60000002384,35311.90000003576,35680.5,42643.69999998808,43475.5,44108.60000002384,44922.40000003576,45414.30000001192,46054.40000003576,46430.69999998808,47578.5,52735.90000003576,53151.40000003576,53597.19999998808,53996.5,54367.19999998808,55089,55911.40000003576,56324.30000001192,57117.30000001192,57885.30000001192,58764.5,68074.19999998808,70179.69999998808,70530.30000001192,71058.40000003576,74945.5,75955.19999998808,79473.19999998808,80190.30000001192,82390.19999998808,83938.30000001192],"key_events":[0.10000002384185791,7660.699999988079,11357,12049.5,12592.400000035763,13266.5,13890.400000035763,14891.5,15937.699999988079,16617.400000035763,17077.400000035763,17481.5,17870.5,18156.30000001192,18523.5,18931.400000035763,19245.69999998808,19708.5,20049.600000023842,20421.400000035763,22473.400000035763,25662.19999998808,26850.5,27319.5,27775.400000035763,28134.30000001192,28394.600000023842,28762.600000023842,29036.5,29436.30000001192,29855.5,30625.400000035763,31049.5,31469.5,32006.30000001192,32330.400000035763,32696.400000035763,32984.5,33626.60000002384,34244.40000003576,34630.40000003576,34903.60000002384,35311.90000003576,35680.5,40150.60000002384,42643.69999998808,43174.60000002384,43475.5,44108.60000002384,44922.40000003576,45414.30000001192,46054.40000003576,46430.69999998808,47578.5,50625.30000001192,51905.19999998808,52735.90000003576,53151.40000003576,53597.19999998808,53996.5,54367.19999998808,55089,55911.40000003576,56324.30000001192,56771.40000003576,57117.30000001192,57885.30000001192,58764.5,63114.40000003576,66734.40000003576,68074.19999998808,68929.60000002384,69761.10000002384,70179.69999998808,70530.30000001192,71058.40000003576,74945.5,75587.19999998808,75955.19999998808,79473.19999998808,80190.30000001192,82390.19999998808,83629,83938.30000001192,87219.60000002384],"mouse_events":[],"honeypot":0,"survey":"mace","page":1,"trial_type":"survey-mace","trial_index":9,"time_elapsed":353609,"internal_node_id":"0.0-9.0","task_version":"prescreen-v0.3","browser_interactions":0},{"responses":{"01":"Yes","01_ages_3":"3","01_ages_4":"4","01_ages_5":"5","01_ages_6":"6","02":"No","03":"Yes","03_ages_2":"2","03_ages_3":"3","03_ages_4":"4","03_ages_5":"5","03_ages_6":"6","03_ages_7":"7","03_ages_8":"8","03_ages_9":"9","03_ages_10":"10","04":"Yes","04_ages_2":"2","04_ages_3":"3","04_ages_4":"4","04_ages_5":"5","04_ages_6":"6","05":"Yes","05_ages_3":"3","05_ages_4":"4","05_ages_5":"5","05_ages_6":"6","05_ages_7":"7","05_ages_8":"8","05_ages_9":"9","05_ages_10":"10","06":"Yes","06_ages_1":"1","06_ages_2":"2","06_ages_3":"3","06_ages_16":"16","06_ages_17":"17","07":"Yes","07_ages_1":"1","07_ages_2":"2","08":"No"},"rt":69718.70000004768,"item_order":[0,1,2,3,4,5,6,7],"radio_events":[3238.5,11046.600000023842,13426.600000023842,25647.400000035763,33092.5,43801.60000002384,52563.5,57344.40000003576,62315,63295,68350.30000001192],"checkbox_events":[4370,4842.100000023842,5290.900000035763,5729.400000035763,14467.700000047684,15508.600000023842,16067,16888.600000023842,17642.5,18047.5,18638.600000023842,20581.600000023842,21001.700000047684,22160.5,22754.30000001192,26798.600000023842,27435.80000001192,27804.900000035763,28223.900000035763,28735.80000001192,29225.600000023842,29946.600000023842,35173.5,35891.60000002384,36588.40000003576,38751.5,39910.60000002384,40370.700000047684,40850.5,41236.60000002384,45734.40000003576,46349.80000001192,46652.200000047684,48052.90000003576,48611.10000002384,53618.30000001192,54316.5,58533.200000047684,59508.40000003576],"key_events":[2946,3238.5,4370,4842.100000023842,5290.900000035763,5729.400000035763,11046.600000023842,13059.600000023842,13426.600000023842,14467.700000047684,15508.600000023842,16067,16619.80000001192,16888.600000023842,17642.5,18047.5,18638.600000023842,20581.600000023842,21001.700000047684,21503.600000023842,21833.400000035763,22160.5,22754.30000001192,25647.400000035763,26798.600000023842,27124.900000035763,27435.80000001192,27804.900000035763,28223.900000035763,28735.80000001192,29225.600000023842,29597.5,29946.600000023842,33092.5,35173.5,35891.60000002384,36588.40000003576,37328.5,38751.5,39910.60000002384,40370.700000047684,40850.5,41236.60000002384,43801.60000002384,44941.80000001192,45734.40000003576,46349.80000001192,46652.200000047684,48052.90000003576,48611.10000002384,52066.5,52563.5,53618.30000001192,54316.5,57344.40000003576,58533.200000047684,59508.40000003576,62315,63295,67808.70000004768,68350.30000001192,69716.60000002384],"mouse_events":[],"honeypot":0,"survey":"mace","page":2,"trial_type":"survey-mace","trial_index":10,"time_elapsed":423332,"internal_node_id":"0.0-10.0","task_version":"prescreen-v0.3","browser_interactions":0},{"responses":{"01":"Yes","01_ages_3":"3","01_ages_4":"4","01_ages_5":"5","01_ages_6":"6","01_ages_7":"7","01_ages_8":"8","01_ages_9":"9","01_ages_10":"10","01_ages_11":"11","02":"No","03":"Yes","03_ages_1":"1","03_ages_2":"2","03_ages_3":"3","03_ages_4":"4","04":"No"},"rt":33274.59999996424,"item_order":[0,1,2,3],"radio_events":[10807.199999988079,23284.099999964237,25863.399999976158,32800.19999998808],"checkbox_events":[12813.199999988079,13441.299999952316,13832.299999952316,15545.599999964237,15662.399999976158,16455.399999976158,17153.899999976158,17582.19999998808,17957.399999976158,18372.299999952316,18791.5,27699.19999998808,28055.5,28749.19999998808,29957.399999976158],"key_events":[10807.199999988079,12813.199999988079,13441.299999952316,13832.299999952316,14604.399999976158,14971.299999952316,15545.599999964237,15662.399999976158,16455.399999976158,16826.19999998808,17153.899999976158,17582.19999998808,17957.399999976158,18372.299999952316,18791.5,23284.099999964237,25598.299999952316,25863.399999976158,27024.19999998808,27699.19999998808,28055.5,28459.19999998808,28749.19999998808,29957.399999976158,32800.19999998808,33273.5],"mouse_events":[],"honeypot":0,"survey":"mace","page":3,"trial_type":"survey-mace","trial_index":11,"time_elapsed":456611,"internal_node_id":"0.0-11.0","task_version":"prescreen-v0.3","browser_interactions":0},{"responses":{"01":"No","02":"No"},"rt":8015.799999952316,"item_order":[0,1],"radio_events":[6634.199999988079,7337.5],"checkbox_events":[],"key_events":[5654.099999964237,6634.199999988079,7337.5,8015.199999988079],"mouse_events":[],"honeypot":0,"survey":"mace","page":4,"trial_type":"survey-mace","trial_index":12,"time_elapsed":464629,"internal_node_id":"0.0-12.0","task_version":"prescreen-v0.3","browser_interactions":0},{"responses":{"01":"No","02":"No","03":"No","04":"No","05":"No"},"rt":18266.80000001192,"item_order":[0,1,2,3,4],"radio_events":[8902.699999988079,11714.399999976158,15849.600000023842,16651.80000001192,17638.69999998808],"checkbox_events":[],"key_events":[8902.699999988079,11714.399999976158,13164.699999988079,14341.600000023842,15104.199999988079,15849.600000023842,16651.80000001192,17638.69999998808,18265.19999998808],"mouse_events":[],"honeypot":0,"survey":"mace","page":5,"trial_type":"survey-mace","trial_index":13,"time_elapsed":482901,"internal_node_id":"0.0-13.0","task_version":"prescreen-v0.3","browser_interactions":0},{"responses":{"01":"Yes","01_ages_5":"5","01_ages_6":"6","01_ages_7":"7","01_ages_8":"8","01_ages_9":"9","01_ages_10":"10","01_ages_11":"11","01_ages_12":"12","01_ages_13":"13","02":"Yes","02_ages_5":"5","02_ages_6":"6","02_ages_7":"7","02_ages_8":"8","02_ages_9":"9","02_ages_10":"10","02_ages_11":"11","02_ages_12":"12","02_ages_13":"13","02_ages_16":"16","03":"No","04":"Yes","04_ages_5":"5","04_ages_6":"6","04_ages_7":"7","04_ages_8":"8","04_ages_9":"9","04_ages_10":"10","04_ages_11":"11","04_ages_12":"12","04_ages_16":"16","04_ages_17":"17","04_ages_18":"18","05":"No"},"rt":46665.10000002384,"item_order":[0,1,2,3,4],"radio_events":[4173.900000035763,17180.600000023842,28773.80000001192,30619.80000001192,32649.100000023842,45853.700000047684],"checkbox_events":[5609.800000011921,6056.900000035763,9027.700000047684,9987,10407.900000035763,10835.100000023842,11285.900000035763,11680.900000035763,12172.800000011921,18157.700000047684,18551.100000023842,18896.80000001192,19392.900000035763,19780.80000001192,20148.900000035763,20588.600000023842,20990.700000047684,21804.80000001192,24276.80000001192,33584.10000002384,34027.80000001192,34372.90000003576,34744.10000002384,35815.80000001192,36223.80000001192,36789.40000003576,37159.90000003576,39847.80000001192,40962.80000001192,41838.80000001192,42630,43141.700000047684],"key_events":[4173.900000035763,5609.800000011921,6056.900000035763,6424.700000047684,6965.800000011921,7353.800000011921,8730,9027.700000047684,9603.700000047684,9987,10407.900000035763,10835.100000023842,11285.900000035763,11680.900000035763,12172.800000011921,16900.900000035763,17180.600000023842,18157.700000047684,18551.100000023842,18896.80000001192,19392.900000035763,19780.80000001192,20148.900000035763,20588.600000023842,20990.700000047684,21508,21804.80000001192,24276.80000001192,27979.80000001192,28773.80000001192,30619.80000001192,32649.100000023842,33584.10000002384,34027.80000001192,34372.90000003576,34744.10000002384,35138.80000001192,35815.80000001192,36223.80000001192,36789.40000003576,37159.90000003576,39847.80000001192,40418.60000002384,40962.80000001192,41505.80000001192,41838.80000001192,42630,43141.700000047684,45853.700000047684,46663.700000047684],"mouse_events":[],"honeypot":0,"survey":"mace","page":6,"trial_type":"survey-mace","trial_index":14,"time_elapsed":529569,"internal_node_id":"0.0-14.0","task_version":"prescreen-v0.3","browser_interactions":0},{"responses":{"01":"No","02":"No","03":"Yes","03_ages_4":"4","03_ages_5":"5","03_ages_6":"6","03_ages_7":"7","04":"No","05":"No","06":"Yes","06_ages_3":"3","06_ages_4":"4","06_ages_5":"5","07":"No"},"rt":27916.19999998808,"item_order":[0,1,2,3,4,5,6],"radio_events":[5153.5,6143.399999976158,10155.399999976158,16609.30000001192,19929,20662.19999998808,27214.30000001192],"checkbox_events":[11232.699999988079,11870.399999976158,13132.199999988079,13485.300000011921,22640.5,23259.399999976158,24661.30000001192],"key_events":[5153.5,6143.399999976158,8743.399999976158,9755.300000011921,10155.399999976158,11232.699999988079,11870.399999976158,12482.300000011921,13132.199999988079,13485.300000011921,16609.30000001192,18421.399999976158,19929,20662.19999998808,21791.5,22640.5,23259.399999976158,24661.30000001192,27214.30000001192,27914.399999976158],"mouse_events":[],"honeypot":0,"survey":"mace","page":7,"trial_type":"survey-mace","trial_index":15,"time_elapsed":557491,"internal_node_id":"0.0-15.0","task_version":"prescreen-v0.3","browser_interactions":0},{"responses":{"01":"Yes","01_ages_10":"10","01_ages_11":"11","01_ages_12":"12","01_ages_15":"15","01_ages_16":"16","01_ages_17":"17","01_ages_18":"18","02":"Yes","02_ages_1":"1","02_ages_2":"2","02_ages_3":"3","02_ages_4":"4","02_ages_5":"5","02_ages_6":"6","02_ages_7":"7","02_ages_8":"8","02_ages_9":"9","02_ages_10":"10","02_ages_11":"11","02_ages_12":"12","02_ages_13":"13","02_ages_14":"14","02_ages_15":"15","02_ages_16":"16","02_ages_17":"17","02_ages_18":"18","03":"Yes","03_ages_3":"3","03_ages_4":"4","03_ages_5":"5","03_ages_6":"6","03_ages_7":"7","03_ages_8":"8","03_ages_9":"9","03_ages_10":"10","03_ages_11":"11","03_ages_12":"12","03_ages_13":"13","03_ages_14":"14","03_ages_15":"15","03_ages_16":"16","03_ages_17":"17","03_ages_18":"18","04":"Yes","04_ages_4":"4","04_ages_5":"5","04_ages_6":"6","04_ages_7":"7","04_ages_8":"8","04_ages_9":"9","04_ages_10":"10","04_ages_11":"11","04_ages_12":"12","04_ages_13":"13","04_ages_14":"14","04_ages_15":"15","04_ages_16":"16","04_ages_17":"17","04_ages_18":"18"},"rt":61925.200000047684,"item_order":[0,1,2,3],"radio_events":[10714.200000047684,22953.200000047684,38506.10000002384,50822.30000001192],"checkbox_events":[13317.200000047684,13745.200000047684,14537.100000023842,16992.200000047684,17641.200000047684,18130.200000047684,18466.30000001192,24170.100000023842,24665.30000001192,25470.200000047684,26058.600000023842,26498,27204,28135.200000047684,28526.200000047684,29346.200000047684,29755.100000023842,30118.400000035763,30510.30000001192,31281.200000047684,31716.200000047684,32141.100000023842,33033.10000002384,33404.200000047684,34081.10000002384,41164.30000001192,41541.30000001192,41910.200000047684,42557.30000001192,43095,43573.90000003576,43975,44399.10000002384,45064.5,45444.10000002384,45840.10000002384,46199.10000002384,46740.90000003576,47204.10000002384,47594.30000001192,48176.10000002384,52915.10000002384,53548.10000002384,53928.40000003576,54378,55492,55856.700000047684,56642.200000047684,57636.10000002384,57987,58717.10000002384,59239.5,59711,60153.10000002384,60813.10000002384,61501.10000002384],"key_events":[10714.200000047684,13317.200000047684,13745.200000047684,14249.5,14537.100000023842,16992.200000047684,17641.200000047684,18130.200000047684,18466.30000001192,22280.600000023842,22953.200000047684,24170.100000023842,24665.30000001192,25178,25470.200000047684,26058.600000023842,26498,26872.200000047684,27204,28135.200000047684,28526.200000047684,29073.100000023842,29346.200000047684,29755.100000023842,30118.400000035763,30510.30000001192,30915.30000001192,31281.200000047684,31716.200000047684,32141.100000023842,32594.700000047684,33033.10000002384,33404.200000047684,33756.200000047684,34081.10000002384,38166.200000047684,38506.10000002384,41164.30000001192,41541.30000001192,41910.200000047684,42315.90000003576,42557.30000001192,43095,43573.90000003576,43975,44399.10000002384,44804.200000047684,45064.5,45444.10000002384,45840.10000002384,46199.10000002384,46740.90000003576,47204.10000002384,47594.30000001192,47890.10000002384,48176.10000002384,50822.30000001192,52915.10000002384,53548.10000002384,53928.40000003576,54378,55044.200000047684,55492,55856.700000047684,56642.200000047684,57221,57636.10000002384,57987,58390,58717.10000002384,59239.5,59711,60153.10000002384,60529.200000047684,60813.10000002384,61156.200000047684,61501.10000002384,61924.200000047684],"mouse_events":[],"honeypot":0,"survey":"mace","page":8,"trial_type":"survey-mace","trial_index":16,"time_elapsed":619421,"internal_node_id":"0.0-16.0","task_version":"prescreen-v0.3","browser_interactions":0},{"responses":{"01":"Yes","01_ages_3":"3","01_ages_4":"4","01_ages_5":"5","01_ages_6":"6","01_ages_7":"7","01_ages_8":"8","01_ages_9":"9","01_ages_10":"10","01_ages_11":"11","01_ages_12":"12","01_ages_13":"13","01_ages_14":"14","01_ages_15":"15","01_ages_16":"16","01_ages_17":"17","01_ages_18":"18","02":"No","03":"Yes","03_ages_1":"1","03_ages_2":"2","03_ages_3":"3","03_ages_4":"4","03_ages_5":"5","03_ages_6":"6","03_ages_7":"7","03_ages_8":"8","03_ages_9":"9","03_ages_10":"10","03_ages_11":"11","03_ages_12":"12","03_ages_13":"13","03_ages_14":"14","03_ages_15":"15","03_ages_16":"16","03_ages_17":"17","03_ages_18":"18","04":"Yes","04_ages_1":"1","04_ages_2":"2","04_ages_3":"3","04_ages_4":"4","04_ages_5":"5","04_ages_6":"6","04_ages_7":"7","04_ages_8":"8","04_ages_9":"9","04_ages_10":"10","04_ages_11":"11","04_ages_12":"12","04_ages_13":"13","04_ages_14":"14","04_ages_15":"15","04_ages_16":"16"},"rt":48271.19999998808,"item_order":[0,1,2,3],"radio_events":[4278,17033.30000001192,17883,21317.899999976158,36231.89999997616],"checkbox_events":[5610.399999976158,6359,7492.100000023842,8032,8500.100000023842,9464,10494.100000023842,11081.199999988079,11549.899999976158,11953.100000023842,12334.800000011921,12715,13072,13494,13848.899999976158,14680.100000023842,22406,22774.30000001192,23381.80000001192,23746,24517.600000023842,25158.19999998808,25513.19999998808,26006.69999998808,26581.80000001192,27655.899999976158,28076.899999976158,29063.899999976158,29752.80000001192,30433.100000023842,31237,31695.899999976158,32377.899999976158,33102.19999998808,37122.80000001192,37584.89999997616,38275.10000002384,38732.89999997616,39205.89999997616,40852.89999997616,41520.69999998808,42370,42754.89999997616,43587.80000001192,43985.89999997616,44626.80000001192,45415.80000001192,45851.80000001192,46702.89999997616,47536.69999998808],"key_events":[4278,5610.399999976158,6359,7041,7492.100000023842,8032,8500.100000023842,9464,9943.899999976158,10231.100000023842,10494.100000023842,11081.199999988079,11549.899999976158,11953.100000023842,12334.800000011921,12715,13072,13494,13848.899999976158,14242.100000023842,14680.100000023842,17033.30000001192,17883,20354.899999976158,20764.80000001192,21080.80000001192,21317.899999976158,22406,22774.30000001192,23381.80000001192,23746,24112,24517.600000023842,25158.19999998808,25513.19999998808,26006.69999998808,26581.80000001192,27655.899999976158,28076.899999976158,28704.100000023842,29063.899999976158,29752.80000001192,30133.5,30433.100000023842,31237,31695.899999976158,32377.899999976158,33102.19999998808,35929.10000002384,36231.89999997616,37122.80000001192,37584.89999997616,38275.10000002384,38732.89999997616,39205.89999997616,39759.89999997616,40160.69999998808,40852.89999997616,41232.39999997616,41520.69999998808,42370,42754.89999997616,43166.89999997616,43587.80000001192,43985.89999997616,44626.80000001192,45056.80000001192,45415.80000001192,45851.80000001192,46702.89999997616,47190,47536.69999998808,48270],"mouse_events":[],"honeypot":0,"survey":"mace","page":9,"trial_type":"survey-mace","trial_index":17,"time_elapsed":667696,"internal_node_id":"0.0-17.0","task_version":"prescreen-v0.3","browser_interactions":0},{"responses":{"01":"No","02":"No","03":"Yes","03_ages_8":"8","03_ages_9":"9","03_ages_10":"10","03_ages_11":"11","03_ages_12":"12","03_ages_13":"13","03_ages_14":"14","03_ages_15":"15","03_ages_16":"16","03_ages_17":"17","03_ages_18":"18","04":"Yes","04_ages_7":"7","04_ages_8":"8","04_ages_9":"9","04_ages_10":"10","04_ages_11":"11","04_ages_12":"12","04_ages_13":"13","04_ages_14":"14","05":"No","06":"Yes","06_ages_17":"17","07":"Yes","07_ages_1":"1","07_ages_2":"2","07_ages_3":"3","07_ages_4":"4","07_ages_5":"5","07_ages_6":"6","07_ages_7":"7","07_ages_8":"8","07_ages_9":"9","07_ages_10":"10","07_ages_11":"11","07_ages_12":"12","07_ages_13":"13","07_ages_14":"14","08":"No"},"rt":55396.700000047684,"item_order":[0,1,2,3,4,5,6,7],"radio_events":[2632.800000011921,3630.100000023842,5180.600000023842,18627.5,33594.40000003576,34468.80000001192,38634.5,54916.40000003576],"checkbox_events":[7582.900000035763,7950.5,8193.400000035763,9349,9774.800000011921,12083.600000023842,12504.400000035763,13192.600000023842,13554.600000023842,13916.100000023842,14303.700000047684,14732.600000023842,15896.5,20381.700000047684,20976.600000023842,21952.5,22503.700000047684,23127.900000035763,23654.600000023842,26293.400000035763,26890.5,35934.5,42613.40000003576,43156.40000003576,43653.5,44778.60000002384,45227.60000002384,45963.40000003576,46735.40000003576,47448.40000003576,47928.5,49252.40000003576,49655.40000003576,50400.60000002384,52162.60000002384,52914.40000003576],"key_events":[2632.800000011921,3630.100000023842,5180.600000023842,6897.400000035763,7582.900000035763,7950.5,8193.400000035763,9084.5,9349,9774.800000011921,11246.700000047684,11805.700000047684,12083.600000023842,12504.400000035763,12830.700000047684,13192.600000023842,13554.600000023842,13916.100000023842,14303.700000047684,14732.600000023842,15078.600000023842,15896.5,18627.5,20381.700000047684,20976.600000023842,21952.5,22503.700000047684,23127.900000035763,23654.600000023842,26293.400000035763,26890.5,31808.600000023842,33594.40000003576,34468.80000001192,35934.5,38634.5,42613.40000003576,43156.40000003576,43653.5,44193.30000001192,44778.60000002384,45227.60000002384,45963.40000003576,46735.40000003576,47448.40000003576,47928.5,48560.30000001192,49252.40000003576,49655.40000003576,50400.60000002384,52162.60000002384,52914.40000003576,54916.40000003576,55394.60000002384],"mouse_events":[],"honeypot":0,"survey":"mace","page":10,"trial_type":"survey-mace","trial_index":18,"time_elapsed":723097,"internal_node_id":"0.0-18.0","task_version":"prescreen-v0.3","browser_interactions":0,"instructed":0},{"rt":2140.899999976158,"trial_type":"mental-health-alert","trial_index":19,"time_elapsed":725241,"internal_node_id":"0.0-19.0","task_version":"prescreen-v0.3","interactions":"[]"}]