[{"view_history":[{"page_index":0,"viewing_time":1060.800000011921},{"page_index":1,"viewing_time":2603.199999988079},{"page_index":2,"viewing_time":4032.0999999940395},{"page_index":3,"viewing_time":1242}],"rt":8939.09999999404,"trial_type":"instructions","trial_index":0,"time_elapsed":8976,"internal_node_id":"0.0-0.0","task_version":"prescreen-v0.3"},{"rt":11725.299999982119,"responses":{"age":"32","gender-categorical":"Male","gender-free-response":"","ethnicity":"Not Hispanic or Latino","race":["White"],"education":"Some college","siblings":"0"},"trial_type":"survey-demo","trial_index":1,"time_elapsed":20707,"internal_node_id":"0.0-1.0","task_version":"prescreen-v0.3"},{"responses":{"Q04":"1","Q18":"2","Q16":"2","Q17":"1","Q14":"1","Q13":"1","Q05":"2","Q12":"3","Q03":"2","Q21":"0","Q19":"2","Q10":"1","Q09":"2","Q01":"1","Q15":"2","Q08":"3","Q20":"1","Q02":"1","Q07":"2","Q11":"2","Q06":"1"},"rt":55031,"item_order":[3,17,15,16,13,12,4,11,2,20,18,9,8,0,14,7,19,1,6,10,5],"radio_events":[5598.800000011921,6519,15230.700000017881,16338.800000011921,17462.70000001788,19868.80000001192,23546.40000000596,27570.70000001788,29434.70000001788,30612.70000001788,33686.70000001788,35824.90000000596,37608.70000001788,39062.59999999404,41656.70000001788,44266.90000000596,45267.30000001192,47088.59999999404,49974.70000001788,53504.59999999404,54456.59999999404],"key_events":[],"mouse_events":[4490.800000011921,5222.800000011921,5598.800000011921,6519,15230.700000017881,16338.800000011921,17462.70000001788,19868.80000001192,23546.40000000596,27570.70000001788,29434.70000001788,30612.70000001788,33686.70000001788,35824.90000000596,37608.70000001788,39062.59999999404,41656.70000001788,44266.90000000596,45267.30000001192,47088.59999999404,49974.70000001788,52088.80000001192,53504.59999999404,54456.59999999404,55028.80000001192],"straightlining":0.42857142857142855,"zigzagging":0.6,"honeypot":0,"survey":"sns","trial_type":"survey-template","trial_index":2,"time_elapsed":75740,"internal_node_id":"0.0-2.0","task_version":"prescreen-v0.3","browser_interactions":0,"infrequency":1},{"responses":{"Q05":"0","Q09":"2","Q04":"3","Q02":"1","Q03":"2","Q06":"2","Q12":"2","Q01":"3","Q13":"0","Q10":"1","Q07":"2","Q11":"2","Q08":"0"},"rt":28423.19999998808,"item_order":[4,8,3,1,2,5,11,0,12,9,6,10,7],"radio_events":[3185.9000000059605,5637.800000011921,7933.800000011921,10387.800000011921,12250,14387.699999988079,15379.699999988079,16825.69999998808,18052.59999999404,19945.90000000596,21597.69999998808,25804,27437.90000000596],"key_events":[],"mouse_events":[3185.9000000059605,5637.800000011921,7933.800000011921,10387.800000011921,12250,14387.699999988079,15379.699999988079,16825.69999998808,18052.59999999404,19945.90000000596,21597.69999998808,23799.69999998808,24695.59999999404,25804,27437.90000000596,28421.90000000596],"straightlining":0.46153846153846156,"zigzagging":0.5,"honeypot":0,"survey":"bisbas","trial_type":"survey-template","trial_index":3,"time_elapsed":104169,"internal_node_id":"0.0-3.0","task_version":"prescreen-v0.3","browser_interactions":0,"infrequency":0},{"responses":{"Q01":"2","Q02":"2","Q03":"2"},"rt":8808.600000023842,"radio_events":[5371.4000000059605,6275.600000023842,8099.300000011921],"key_events":[],"mouse_events":[4035.5,5371.4000000059605,6275.600000023842,8099.300000011921,8807.90000000596],"survey":"map","page":1,"trial_type":"survey-map","trial_index":4,"time_elapsed":112980,"internal_node_id":"0.0-4.0","task_version":"prescreen-v0.3","browser_interactions":0},{"responses":{"Q04":"2","Q05":"1","Q06":"1"},"rt":10335.5,"radio_events":[4714.799999982119,7646.5999999940395,9675],"key_events":[],"mouse_events":[233.09999999403954,4714.799999982119,7190.5999999940395,7646.5999999940395,9675,10334.899999976158],"survey":"map","page":2,"trial_type":"survey-map","trial_index":5,"time_elapsed":123318,"internal_node_id":"0.0-5.0","task_version":"prescreen-v0.3","browser_interactions":0},{"responses":{"Q07":"3","Q08":"4","Q09":"2"},"rt":11774.300000011921,"radio_events":[7167.9000000059605,8353.5,11081.5],"key_events":[],"mouse_events":[3715.9000000059605,7167.9000000059605,8353.5,11081.5,11773.699999988079],"survey":"map","page":3,"trial_type":"survey-map","trial_index":6,"time_elapsed":135094,"internal_node_id":"0.0-6.0","task_version":"prescreen-v0.3","browser_interactions":0},{"responses":{"Q10":"1","Q11":"2","Q12":"0","Q13":"0","Q16":"0","Q14":"0","Q15":"1"},"rt":17900.70000001788,"radio_events":[2309.9000000059605,4895.700000017881,6539.5,8071.5,10225.59999999404,13245.800000011921,17357.80000001192],"key_events":[],"mouse_events":[2309.9000000059605,4895.700000017881,6539.5,8071.5,10225.59999999404,12765.700000017881,13245.800000011921,16421.59999999404,17357.80000001192,17899.70000001788],"survey":"map","page":4,"trial_type":"survey-map","trial_index":7,"time_elapsed":152992,"internal_node_id":"0.0-7.0","task_version":"prescreen-v0.3","browser_interactions":0,"infrequency":0},{"view_history":[{"page_index":0,"viewing_time":1523.300000011921},{"page_index":1,"viewing_time":1711.8999999761581}],"rt":3235.5999999940395,"trial_type":"instructions","trial_index":8,"time_elapsed":156229,"internal_node_id":"0.0-8.0","task_version":"prescreen-v0.3"},{"responses":{"01":"Yes","01_ages_7":"7","01_ages_8":"8","01_ages_9":"9","01_ages_10":"10","01_ages_11":"11","01_ages_12":"12","01_ages_13":"13","01_ages_14":"14","01_ages_15":"15","01_ages_16":"16","01_ages_17":"17","01_ages_18":"18","02":"Yes","02_ages_7":"7","02_ages_8":"8","02_ages_9":"9","02_ages_10":"10","02_ages_11":"11","02_ages_12":"12","02_ages_13":"13","02_ages_14":"14","02_ages_15":"15","02_ages_16":"16","02_ages_17":"17","02_ages_18":"18","03":"Yes","03_ages_7":"7","03_ages_8":"8","03_ages_9":"9","03_ages_10":"10","03_ages_11":"11","03_ages_12":"12","03_ages_13":"13","03_ages_14":"14","03_ages_15":"15","03_ages_16":"16","04":"No","05":"No","06":"No"},"rt":44131.40000000596,"item_order":[0,1,2,3,4,5],"radio_events":[3022.5,16402.30000001192,27816.19999998808,37274.69999998808,39678.5,40960.30000001192],"checkbox_events":[5908.4000000059605,6370,6812.0999999940395,7188.4000000059605,7786.300000011921,9688.300000011921,10074.199999988079,10522.5,10947.800000011921,11354.300000011921,12472.40000000596,12856.300000011921,13226.300000011921,14420.300000011921,18422.30000001192,18776.30000001192,19272.19999998808,20128.09999999404,21316.09999999404,22942.5,23454.19999998808,24090.19999998808,24836.19999998808,25442.09999999404,25890.30000001192,26394.40000000596,29364.30000001192,30206.19999998808,30788.19999998808,31842.19999998808,32644,33452,34286.30000001192,35024,35622.19999998808,36550.40000000596],"key_events":[],"mouse_events":[0.09999999403953552,3022.5,5908.4000000059605,6370,6812.0999999940395,7188.4000000059605,7786.300000011921,9688.300000011921,10074.199999988079,10522.5,10947.800000011921,11354.300000011921,11764.300000011921,12472.40000000596,12856.300000011921,13226.300000011921,14420.300000011921,16402.30000001192,18422.30000001192,18776.30000001192,19272.19999998808,20128.09999999404,21316.09999999404,22942.5,23454.19999998808,24090.19999998808,24836.19999998808,25442.09999999404,25890.30000001192,26394.40000000596,27234.30000001192,27816.19999998808,29364.30000001192,29750.09999999404,30206.19999998808,30788.19999998808,31306.19999998808,31842.19999998808,32311.90000000596,32644,33452,34286.30000001192,35024,35622.19999998808,36550.40000000596,37274.69999998808,39678.5,40960.30000001192,44128.5],"honeypot":0,"survey":"mace","page":1,"trial_type":"survey-mace","trial_index":9,"time_elapsed":200367,"internal_node_id":"0.0-9.0","task_version":"prescreen-v0.3","browser_interactions":0},{"responses":{"01":"No","02":"No","03":"No","04":"No","05":"No","06":"No","07":"No","08":"No"},"rt":12063.5,"item_order":[0,1,2,3,4,5,6,7],"radio_events":[2657,3451.2000000178814,4435,5103,6234.9000000059605,8601,9025.200000017881,11533.100000023842],"checkbox_events":[],"key_events":[],"mouse_events":[2657,3451.2000000178814,4435,5103,6234.9000000059605,7499,8601,9025.200000017881,9741.200000017881,10235.200000017881,10792.90000000596,11211.100000023842,11533.100000023842,12059.40000000596],"honeypot":0,"survey":"mace","page":2,"trial_type":"survey-mace","trial_index":10,"time_elapsed":212439,"internal_node_id":"0.0-10.0","task_version":"prescreen-v0.3","browser_interactions":0},{"responses":{"01":"No","02":"No","03":"No","04":"No"},"rt":4994.5,"item_order":[0,1,2,3],"radio_events":[2012.5999999940395,2688.5,3318.5,4096.399999976158],"checkbox_events":[],"key_events":[],"mouse_events":[2012.5999999940395,2688.5,3318.5,4096.399999976158,4992.5],"honeypot":0,"survey":"mace","page":3,"trial_type":"survey-mace","trial_index":11,"time_elapsed":217436,"internal_node_id":"0.0-11.0","task_version":"prescreen-v0.3","browser_interactions":0},{"responses":{"01":"Yes","01_ages_10":"10","01_ages_11":"11","01_ages_12":"12","01_ages_13":"13","01_ages_14":"14","02":"No"},"rt":15946.800000011921,"item_order":[0,1],"radio_events":[6369.699999988079,9765.699999988079,15465.699999988079],"checkbox_events":[11935.699999988079,12415.5,13013.90000000596,13933.5,14553.699999988079],"key_events":[],"mouse_events":[6369.699999988079,9191.699999988079,9765.699999988079,11935.699999988079,12415.5,13013.90000000596,13933.5,14553.699999988079,15465.699999988079,15945.59999999404],"honeypot":0,"survey":"mace","page":4,"trial_type":"survey-mace","trial_index":12,"time_elapsed":233385,"internal_node_id":"0.0-12.0","task_version":"prescreen-v0.3","browser_interactions":0},{"responses":{"01":"No","02":"No","03":"No","04":"No","05":"No"},"rt":6783.100000023842,"item_order":[0,1,2,3,4],"radio_events":[2212.600000023842,3304.600000023842,4280.600000023842,5608.600000023842,6252.300000011921],"checkbox_events":[],"key_events":[],"mouse_events":[2212.600000023842,3304.600000023842,4280.600000023842,5608.600000023842,6252.300000011921,6780.600000023842],"honeypot":0,"survey":"mace","page":5,"trial_type":"survey-mace","trial_index":13,"time_elapsed":240171,"internal_node_id":"0.0-13.0","task_version":"prescreen-v0.3","browser_interactions":0},{"responses":{"01":"Yes","01_ages_6":"6","01_ages_7":"7","01_ages_8":"8","01_ages_9":"9","01_ages_10":"10","01_ages_11":"11","01_ages_12":"12","01_ages_13":"13","01_ages_14":"14","01_ages_15":"15","01_ages_16":"16","02":"Yes","02_ages_6":"6","02_ages_7":"7","02_ages_8":"8","02_ages_9":"9","02_ages_10":"10","02_ages_11":"11","02_ages_12":"12","02_ages_13":"13","02_ages_14":"14","02_ages_15":"15","02_ages_16":"16","03":"Yes","03_ages_7":"7","03_ages_8":"8","03_ages_9":"9","03_ages_10":"10","03_ages_11":"11","03_ages_12":"12","03_ages_13":"13","03_ages_14":"14","03_ages_15":"15","03_ages_16":"16","04":"Yes","04_ages_7":"7","04_ages_8":"8","04_ages_9":"9","04_ages_10":"10","04_ages_11":"11","04_ages_12":"12","04_ages_13":"13","04_ages_14":"14","05":"Yes","05_ages_7":"7","05_ages_8":"8","05_ages_9":"9","05_ages_10":"10","05_ages_11":"11","05_ages_12":"12","05_ages_13":"13","05_ages_14":"14","05_ages_15":"15","05_ages_16":"16","05_ages_17":"17","05_ages_18":"18"},"rt":42941.20000001788,"item_order":[0,1,2,3,4],"radio_events":[2416.4000000059605,10466.90000000596,17888.80000001192,26140.59999999404,33050.5],"checkbox_events":[3532.5,3941,4420.700000017881,4828.700000017881,5284.9000000059605,5638.5999999940395,6078.800000011921,6488.700000017881,6880.5999999940395,7275.300000011921,7800.700000017881,11708.700000017881,12092.40000000596,12486.700000017881,12856.700000017881,13666.700000017881,14334.700000017881,14940.90000000596,15356.700000017881,15788.700000017881,16308.59999999404,16724.80000001192,19648.90000000596,21086.70000001788,21448.70000001788,21802.80000001192,22164.59999999404,22524.70000001788,23548.90000000596,24136.5,24584.59999999404,25214.70000001788,27258.59999999404,27682.59999999404,28294.40000000596,28704.5,29158.70000001788,30252.80000001192,30936.59999999404,31776.80000001192,34056.70000001788,35494.80000001192,36101.20000001788,36854.59999999404,37460.59999999404,37900.59999999404,38340.59999999404,39134.40000000596,40918.5,41610.59999999404,42042.70000001788,42418.80000001192],"key_events":[],"mouse_events":[2416.4000000059605,3532.5,3941,4420.700000017881,4828.700000017881,5284.9000000059605,5638.5999999940395,6078.800000011921,6488.700000017881,6880.5999999940395,7275.300000011921,7800.700000017881,8430.700000017881,9522.59999999404,10466.90000000596,11708.700000017881,12092.40000000596,12486.700000017881,12856.700000017881,13210.5,13666.700000017881,14043,14334.700000017881,14940.90000000596,15356.700000017881,15788.700000017881,16308.59999999404,16724.80000001192,17888.80000001192,19648.90000000596,20300.90000000596,21086.70000001788,21448.70000001788,21802.80000001192,22164.59999999404,22524.70000001788,22934.70000001788,23548.90000000596,24136.5,24584.59999999404,25214.70000001788,26140.59999999404,27258.59999999404,27682.59999999404,28294.40000000596,28704.5,29158.70000001788,29584.70000001788,30252.80000001192,30936.59999999404,31776.80000001192,33050.5,34056.70000001788,34472.70000001788,34936.59999999404,35494.80000001192,36101.20000001788,36532.90000000596,36854.59999999404,37460.59999999404,37900.59999999404,38340.59999999404,38796.40000000596,39134.40000000596,40918.5,41610.59999999404,42042.70000001788,42418.80000001192,42938.80000001192],"honeypot":0,"survey":"mace","page":6,"trial_type":"survey-mace","trial_index":14,"time_elapsed":283116,"internal_node_id":"0.0-14.0","task_version":"prescreen-v0.3","browser_interactions":0},{"responses":{"01":"Yes","01_ages_7":"7","01_ages_8":"8","01_ages_9":"9","01_ages_10":"10","01_ages_11":"11","01_ages_12":"12","02":"Yes","02_ages_7":"7","02_ages_8":"8","02_ages_9":"9","02_ages_10":"10","02_ages_11":"11","02_ages_12":"12","02_ages_13":"13","02_ages_14":"14","03":"Yes","03_ages_7":"7","03_ages_8":"8","03_ages_9":"9","03_ages_10":"10","03_ages_11":"11","03_ages_12":"12","03_ages_13":"13","03_ages_14":"14","04":"Yes","04_ages_7":"7","04_ages_8":"8","04_ages_9":"9","04_ages_10":"10","04_ages_11":"11","04_ages_12":"12","04_ages_13":"13","05":"No","06":"Yes","06_ages_8":"8","06_ages_9":"9","06_ages_10":"10","06_ages_11":"11","06_ages_12":"12","06_ages_13":"13","06_ages_14":"14","07":"Yes","07_ages_8":"8","07_ages_9":"9","07_ages_10":"10","07_ages_11":"11","07_ages_12":"12","07_ages_13":"13","07_ages_14":"14"},"rt":37307.5,"item_order":[0,1,2,3,4,5,6],"radio_events":[2492.199999988079,7422,13882,19494,25734,26974.09999999404,31981.899999976158],"checkbox_events":[3294,4026,4410,5008.199999988079,5386.0999999940395,5761.899999976158,8978,9590,10180.299999982119,10596.199999988079,11532,11916.09999999404,12403.699999988079,12803.899999976158,14636.199999988079,15601.899999976158,16089.799999982119,16505.79999998212,16940.19999998808,17393.899999976158,17834,18228.19999998808,20444.59999999404,21465.899999976158,21828.09999999404,22236,22612.09999999404,23076,23509.899999976158,27808,28382,28773.899999976158,29725.899999976158,30174,30589.79999998212,31007.69999998808,33632.09999999404,34308,34849.89999997616,35228,35834.39999997616,36233.89999997616,36595.89999997616],"key_events":[],"mouse_events":[1596,2492.199999988079,3294,3640,4026,4410,5008.199999988079,5386.0999999940395,5761.899999976158,6840,7422,8238,8978,9590,10180.299999982119,10596.199999988079,10974,11532,11916.09999999404,12403.699999988079,12803.899999976158,13882,14636.199999988079,15036,15601.899999976158,16089.799999982119,16505.79999998212,16940.19999998808,17393.899999976158,17834,18228.19999998808,19494,20444.59999999404,20907.899999976158,21465.899999976158,21828.09999999404,22236,22612.09999999404,23076,23509.899999976158,24248,25734,26974.09999999404,27808,28382,28773.899999976158,29151.79999998212,29725.899999976158,30174,30589.79999998212,31007.69999998808,31981.899999976158,33632.09999999404,34308,34849.89999997616,35228,35834.39999997616,36233.89999997616,36595.89999997616,37304.09999999404],"honeypot":0,"survey":"mace","page":7,"trial_type":"survey-mace","trial_index":15,"time_elapsed":320428,"internal_node_id":"0.0-15.0","task_version":"prescreen-v0.3","browser_interactions":0},{"responses":{"01":"No","02":"No","03":"Yes","03_ages_7":"7","03_ages_8":"8","03_ages_9":"9","03_ages_10":"10","03_ages_11":"11","03_ages_12":"12","03_ages_13":"13","03_ages_14":"14","03_ages_15":"15","03_ages_16":"16","03_ages_17":"17","03_ages_18":"18","04":"No"},"rt":21775.09999999404,"item_order":[0,1,2,3],"radio_events":[4111.300000011921,7655.0999999940395,10123.200000017881,13095.300000011921,21316.80000001192],"checkbox_events":[14659.200000017881,15131.09999999404,16089.200000017881,16552.90000000596,16977.09999999404,17614.90000000596,17999,18856.80000001192,19225.20000001788,19634.80000001192,20066.90000000596,20434.80000001192],"key_events":[],"mouse_events":[3183.0999999940395,4111.300000011921,7655.0999999940395,10123.200000017881,13095.300000011921,14659.200000017881,15131.09999999404,16089.200000017881,16552.90000000596,16977.09999999404,17614.90000000596,17999,18446.90000000596,18856.80000001192,19225.20000001788,19634.80000001192,20066.90000000596,20434.80000001192,20962.80000001192,21316.80000001192,21773],"honeypot":0,"survey":"mace","page":8,"trial_type":"survey-mace","trial_index":16,"time_elapsed":342204,"internal_node_id":"0.0-16.0","task_version":"prescreen-v0.3","browser_interactions":0},{"responses":{"01":"Yes","01_ages_1":"1","01_ages_2":"2","01_ages_3":"3","01_ages_4":"4","01_ages_5":"5","01_ages_6":"6","01_ages_7":"7","01_ages_8":"8","01_ages_9":"9","01_ages_10":"10","01_ages_11":"11","01_ages_12":"12","01_ages_13":"13","01_ages_14":"14","01_ages_15":"15","01_ages_16":"16","01_ages_17":"17","01_ages_18":"18","02":"Yes","02_ages_1":"1","02_ages_2":"2","02_ages_3":"3","02_ages_4":"4","02_ages_5":"5","02_ages_6":"6","02_ages_7":"7","02_ages_8":"8","02_ages_9":"9","02_ages_10":"10","02_ages_11":"11","02_ages_12":"12","02_ages_13":"13","02_ages_14":"14","02_ages_15":"15","02_ages_16":"16","02_ages_17":"17","02_ages_18":"18","03":"Yes","03_ages_1":"1","03_ages_2":"2","03_ages_3":"3","03_ages_4":"4","03_ages_5":"5","03_ages_6":"6","03_ages_7":"7","03_ages_8":"8","03_ages_9":"9","03_ages_10":"10","03_ages_11":"11","03_ages_12":"12","03_ages_13":"13","03_ages_14":"14","03_ages_15":"15","03_ages_16":"16","03_ages_17":"17","03_ages_18":"18","04":"Yes","04_ages_1":"1","04_ages_2":"2","04_ages_3":"3","04_ages_4":"4","04_ages_5":"5","04_ages_6":"6","04_ages_7":"7","04_ages_8":"8","04_ages_9":"9","04_ages_10":"10","04_ages_11":"11","04_ages_12":"12","04_ages_13":"13","04_ages_14":"14","04_ages_15":"15","04_ages_16":"16","04_ages_17":"17","04_ages_18":"18"},"rt":50965.5,"item_order":[0,1,2,3],"radio_events":[2753.199999988079,14533.199999988079,25759.09999999404,39999.29999998212],"checkbox_events":[4199.299999982119,4749.199999988079,5605.199999988079,6831.199999988079,7413.0999999940395,7815.199999988079,8199.59999999404,8977.09999999404,9371.59999999404,9865.199999988079,10283.199999988079,10715.399999976158,11139.199999988079,11681.199999988079,12153.09999999404,12585.199999988079,13127.199999988079,13551.09999999404,15689.199999988079,16075.299999982119,16443.09999999404,16829.19999998808,17231.19999998808,17591.19999998808,17961.19999998808,18377.399999976158,18739.399999976158,19243.19999998808,19675.09999999404,20767.19999998808,21161,21601.19999998808,22441.29999998212,22859.19999998808,23321.29999998212,23707.09999999404,26553.09999999404,27221.29999998212,27629,28171.09999999404,28603.09999999404,28997.09999999404,29421.19999998808,29821.09999999404,30261.399999976158,30663.19999998808,31080,31621.69999998808,32235.5,32841.89999997616,33783.39999997616,34293.29999998212,36133.29999998212,36557.39999997616,41627.39999997616,42201.5,42891.19999998808,43269.59999999404,43653.39999997616,44369.5,45171.09999999404,45729.5,46113.19999998808,46523.39999997616,47151.5,47543.29999998212,48039.29999998212,48441.5,49069.59999999404,49485.39999997616,50027.29999998212,50421.5],"key_events":[],"mouse_events":[2753.199999988079,4199.299999982119,4749.199999988079,5605.199999988079,6831.199999988079,7413.0999999940395,7815.199999988079,8199.59999999404,8977.09999999404,9371.59999999404,9865.199999988079,10283.199999988079,10715.399999976158,11139.199999988079,11681.199999988079,12153.09999999404,12585.199999988079,13127.199999988079,13551.09999999404,14533.199999988079,15689.199999988079,16075.299999982119,16443.09999999404,16829.19999998808,17231.19999998808,17591.19999998808,17961.19999998808,18377.399999976158,18739.399999976158,19243.19999998808,19675.09999999404,20067.19999998808,20767.19999998808,21161,21601.19999998808,22001.09999999404,22441.29999998212,22859.19999998808,23321.29999998212,23707.09999999404,24761.19999998808,25759.09999999404,26553.09999999404,27221.29999998212,27629,28171.09999999404,28603.09999999404,28997.09999999404,29421.19999998808,29821.09999999404,30261.399999976158,30663.19999998808,31080,31621.69999998808,32235.5,32841.89999997616,33783.39999997616,34293.29999998212,36133.29999998212,36557.39999997616,39999.29999998212,41627.39999997616,42201.5,42891.19999998808,43269.59999999404,43653.39999997616,44369.5,45171.09999999404,45729.5,46113.19999998808,46523.39999997616,47151.5,47543.29999998212,48039.29999998212,48441.5,49069.59999999404,49485.39999997616,50027.29999998212,50421.5,50963.5],"honeypot":0,"survey":"mace","page":9,"trial_type":"survey-mace","trial_index":17,"time_elapsed":393173,"internal_node_id":"0.0-17.0","task_version":"prescreen-v0.3","browser_interactions":0},{"responses":{"01":"No","02":"No","03":"No","04":"No","05":"No","06":"Yes","06_ages_17":"17","07":"Yes","07_ages_3":"3","07_ages_4":"4","07_ages_5":"5","07_ages_6":"6","07_ages_7":"7","07_ages_8":"8","07_ages_9":"9","07_ages_10":"10","07_ages_11":"11","07_ages_12":"12","07_ages_13":"13","07_ages_14":"14","07_ages_15":"15","07_ages_16":"16","07_ages_17":"17","07_ages_18":"18","08":"Yes","08_ages_5":"5","08_ages_6":"6","08_ages_7":"7","08_ages_8":"8","08_ages_9":"9","08_ages_10":"10","08_ages_11":"11","08_ages_12":"12","08_ages_13":"13","08_ages_14":"14","08_ages_15":"15","08_ages_16":"16","08_ages_17":"17","08_ages_18":"18"},"rt":41456.80000001192,"item_order":[0,1,2,3,4,5,6,7],"radio_events":[3908.800000011921,5000.700000017881,5992.800000011921,6990.9000000059605,11822.59999999404,12648.59999999404,18362.80000001192,29372.59999999404],"checkbox_events":[14346.5,19618.30000001192,20020.20000001788,20372.5,21246.80000001192,21812.59999999404,22228.30000001192,22598.40000000596,23390.5,24058.5,24444.5,24884.30000001192,25512.40000000596,26504.5,26912.30000001192,27312.59999999404,27650.40000000596,33318.5,33860.5,34230.80000001192,35016.59999999404,35392.5,36100.59999999404,36516.5,36886.5,37278.59999999404,37782.90000000596,38300.59999999404,38670.5,39102.5,40180.5],"key_events":[],"mouse_events":[2849.5,3908.800000011921,5000.700000017881,5992.800000011921,6990.9000000059605,11822.59999999404,12648.59999999404,14346.5,18362.80000001192,19618.30000001192,20020.20000001788,20372.5,21246.80000001192,21812.59999999404,22228.30000001192,22598.40000000596,22966.5,23390.5,24058.5,24444.5,24884.30000001192,25512.40000000596,26504.5,26912.30000001192,27312.59999999404,27650.40000000596,29372.59999999404,33318.5,33860.5,34230.80000001192,34598.5,35016.59999999404,35392.5,36100.59999999404,36516.5,36886.5,37278.59999999404,37782.90000000596,38300.59999999404,38670.5,39102.5,39440.70000001788,40180.5,41452.90000000596],"honeypot":0,"survey":"mace","page":10,"trial_type":"survey-mace","trial_index":18,"time_elapsed":434634,"internal_node_id":"0.0-18.0","task_version":"prescreen-v0.3","browser_interactions":0,"instructed":0},{"rt":216289.09999999404,"trial_type":"mental-health-alert","trial_index":19,"time_elapsed":650925,"internal_node_id":"0.0-19.0","task_version":"prescreen-v0.3","interactions":"[{\"event\":\"blur\",\"trial\":19,\"time\":443553},{\"event\":\"focus\",\"trial\":19,\"time\":648675}]"}]