[{"view_history":[{"page_index":0,"viewing_time":17001},{"page_index":1,"viewing_time":11264},{"page_index":2,"viewing_time":16296},{"page_index":3,"viewing_time":1712}],"rt":46273,"trial_type":"instructions","trial_index":0,"time_elapsed":46276,"internal_node_id":"0.0-0.0","task_version":"prescreen-v0.3"},{"rt":34025,"responses":{"age":"31","gender-categorical":"Female","gender-free-response":"","ethnicity":"Not Hispanic or Latino","race":["White"],"education":"Bachelor degree"},"trial_type":"survey-demo","trial_index":1,"time_elapsed":80319,"internal_node_id":"0.0-1.0","task_version":"prescreen-v0.3"},{"responses":{"Q04":"0","Q21":"3","Q02":"0","Q13":"1","Q06":"2","Q03":"0","Q17":"0","Q09":"1","Q11":"1","Q08":"2","Q07":"1","Q01":"1","Q15":"1","Q20":"0","Q12":"0","Q14":"1","Q19":"1","Q18":"1","Q10":"1","Q16":"0","Q05":"1"},"rt":328466,"item_order":[3,20,1,12,5,2,16,8,10,7,6,0,14,19,11,13,18,17,9,15,4],"radio_events":[51632,52504,63761,72952,84112,97497,115249,119408,136601,144913,152585,169520,175089,176497,177601,187576,193609,213217,220080,238064,254425,280089,287600,310737,314568,326313],"key_events":[],"mouse_events":[9496,12033,13761,25057,29168,29321,29473,49161,50808,51632,52504,62217,63761,72280,72952,84112,97497,114089,114849,115249,119024,119408,121720,136601,137745,144913,152585,168432,169520,175089,175904,176497,177225,177601,187576,193609,198241,210825,211289,211961,213217,219680,220080,237258,238064,253712,254425,278248,278960,279320,280089,287600,309993,310737,314568,326313,328466],"straightlining":0.5238095238095238,"zigzagging":0.55,"honeypot":0,"survey":"sns","trial_type":"survey-template","trial_index":2,"time_elapsed":408790,"internal_node_id":"0.0-2.0","task_version":"prescreen-v0.3","browser_interactions":48,"infrequency":0},{"responses":{"Q01":"1","Q02":"2","Q06":"3","Q03":"2","Q09":"2","Q07":"2","Q05":"3","Q11":"3","Q10":"1","Q13":"1","Q12":"1","Q08":"2","Q04":"2"},"rt":314243,"item_order":[0,1,5,2,8,6,4,10,9,12,11,7,3],"radio_events":[6322,34155,41682,49242,59467,66874,133547,138979,146018,202026,215674,224131,311202],"key_events":[125707],"mouse_events":[6322,14418,15498,16643,26747,34155,41682,48282,49242,57018,59467,66874,69291,133090,133547,138979,146018,202026,215186,215674,223674,224131,279418,311202,314243],"straightlining":0.46153846153846156,"zigzagging":0.4166666666666667,"honeypot":0,"survey":"bisbas","trial_type":"survey-template","trial_index":3,"time_elapsed":723037,"internal_node_id":"0.0-3.0","task_version":"prescreen-v0.3","browser_interactions":40,"infrequency":0.5},{"responses":{"Q01":"3","Q02":"2","Q03":"3"},"rt":164380,"radio_events":[136763,137836,143676,159292],"key_events":[],"mouse_events":[23085,23612,25612,86068,88676,88988,91404,98412,98861,101116,105612,107100,107372,109124,130932,136763,137836,143676,159292,162324,164380],"survey":"map","page":1,"trial_type":"survey-map","trial_index":4,"time_elapsed":887420,"internal_node_id":"0.0-4.0","task_version":"prescreen-v0.3","browser_interactions":14},{"responses":{"Q04":"3","Q05":"2","Q06":"4"},"rt":56862,"radio_events":[24150,28030,34510,35846,49006,55494,56318],"key_events":[21950],"mouse_events":[12582,23662,24150,28030,34510,35406,35846,49006,55494,56318,56862],"survey":"map","page":2,"trial_type":"survey-map","trial_index":5,"time_elapsed":944284,"internal_node_id":"0.0-5.0","task_version":"prescreen-v0.3","browser_interactions":8},{"responses":{"Q07":"1","Q08":"3","Q09":"1"},"rt":57822,"radio_events":[22062,33662,39958,55006,56262],"key_events":[13702],"mouse_events":[2830,22062,33662,39958,53814,55006,55894,56262,57822],"survey":"map","page":3,"trial_type":"survey-map","trial_index":6,"time_elapsed":1002108,"internal_node_id":"0.0-6.0","task_version":"prescreen-v0.3","browser_interactions":6},{"responses":{"Q10":"2","Q11":"1","Q12":"4","Q13":"3","Q16":"0","Q14":"3","Q15":"3"},"rt":137702,"radio_events":[16421,36661,37381,48220,63108,118788,119989,122693,130156,137036],"key_events":[],"mouse_events":[4956,15117,16421,35237,36661,37381,48220,63108,118788,119989,121917,122693,129742,130156,136612,137036,137702],"survey":"map","page":4,"trial_type":"survey-map","trial_index":7,"time_elapsed":1139813,"internal_node_id":"0.0-7.0","task_version":"prescreen-v0.3","browser_interactions":16,"infrequency":0},{"view_history":[{"page_index":0,"viewing_time":4053},{"page_index":1,"viewing_time":11305}],"rt":15358,"trial_type":"instructions","trial_index":8,"time_elapsed":1155172,"internal_node_id":"0.0-8.0","task_version":"prescreen-v0.3"},{"responses":{"01":"No","02":"No","03":"No","04":"No","05":"No","06":"No"},"rt":102770,"item_order":[0,1,2,3,4,5],"radio_events":[59505,68753,74537,81392,89057,99344],"checkbox_events":[],"key_events":[21176],"mouse_events":[0,4794,26393,46809,59505,68753,74537,81392,89057,98321,98992,99344,102770],"honeypot":0,"survey":"mace","page":1,"trial_type":"survey-mace","trial_index":9,"time_elapsed":1257949,"internal_node_id":"0.0-9.0","task_version":"prescreen-v0.3","browser_interactions":14},{"responses":{"01":"No","02":"No","03":"No","04":"No","05":"No","06":"No","07":"No","08":"No"},"rt":89067,"item_order":[0,1,2,3,4,5,6,7],"radio_events":[11081,18392,40177,45153,57761,62273,68968,69873],"checkbox_events":[],"key_events":[],"mouse_events":[11081,17601,18392,24753,40177,40833,45153,55561,57337,57761,62273,68968,69472,69873,89066],"honeypot":0,"survey":"mace","page":2,"trial_type":"survey-mace","trial_index":10,"time_elapsed":1347023,"internal_node_id":"0.0-10.0","task_version":"prescreen-v0.3","browser_interactions":10},{"responses":{"01":"No","02":"No","03":"No","04":"No"},"rt":33025,"item_order":[0,1,2,3],"radio_events":[13609,23016,29112,29929],"checkbox_events":[],"key_events":[],"mouse_events":[3801,13609,14544,23016,29112,29929,33025],"honeypot":0,"survey":"mace","page":3,"trial_type":"survey-mace","trial_index":11,"time_elapsed":1380052,"internal_node_id":"0.0-11.0","task_version":"prescreen-v0.3","browser_interactions":6},{"responses":{"01":"No","02":"No"},"rt":36997,"item_order":[0,1],"radio_events":[2803,13148],"checkbox_events":[],"key_events":[],"mouse_events":[2803,13148,36997],"honeypot":0,"survey":"mace","page":4,"trial_type":"survey-mace","trial_index":12,"time_elapsed":1417052,"internal_node_id":"0.0-12.0","task_version":"prescreen-v0.3","browser_interactions":2},{"responses":{"01":"No","02":"No","03":"No","04":"No","05":"No"},"rt":80141,"item_order":[0,1,2,3,4],"radio_events":[50068,57643,67652,74252,79652],"checkbox_events":[],"key_events":[40563],"mouse_events":[4579,50068,57643,66420,66779,67652,74252,79652,80141],"honeypot":0,"survey":"mace","page":5,"trial_type":"survey-mace","trial_index":13,"time_elapsed":1497197,"internal_node_id":"0.0-13.0","task_version":"prescreen-v0.3","browser_interactions":12},{"responses":{"01":"Yes","01_ages_9":"9","01_ages_10":"10","02":"No","03":"Yes","03_ages_12":"12","04":"No","05":"No"},"rt":168628,"item_order":[0,1,2,3,4],"radio_events":[17739,51786,52778,62443,145090,163442,168018],"checkbox_events":[39211,40555,41866,43363,146571,147106,150171,151066,152587,156627,157746],"key_events":[],"mouse_events":[16971,17739,39211,40555,41866,43363,51786,52778,53482,53667,53826,62443,66650,66803,66938,111131,117564,143146,145090,146571,147106,150171,150698,151066,152587,156627,157746,163442,168018,168628],"honeypot":0,"survey":"mace","page":6,"trial_type":"survey-mace","trial_index":14,"time_elapsed":1665831,"internal_node_id":"0.0-14.0","task_version":"prescreen-v0.3","browser_interactions":12},{"responses":{"01":"No","02":"No","03":"Yes","03_ages_6":"6","03_ages_7":"7","03_ages_8":"8","04":"No","05":"No","06":"No","07":"No"},"rt":66537,"item_order":[0,1,2,3,4,5,6],"radio_events":[18775,24992,32138,61440,62096,64927,65568],"checkbox_events":[38560,40248,40999,42256,43936,45424,47351,48695,49239],"key_events":[],"mouse_events":[11711,18775,19281,24992,32138,38560,40248,40999,42256,43936,44623,45424,47351,48695,49239,60872,61440,61824,62096,63183,64040,64927,65568,66537],"honeypot":0,"survey":"mace","page":7,"trial_type":"survey-mace","trial_index":15,"time_elapsed":1732376,"internal_node_id":"0.0-15.0","task_version":"prescreen-v0.3","browser_interactions":10},{"responses":{"01":"No","02":"No","03":"No","04":"No"},"rt":91800,"item_order":[0,1,2,3],"radio_events":[45455,57528,70440,80495],"checkbox_events":[],"key_events":[],"mouse_events":[4799,4952,5080,13423,14815,43903,44935,45455,57528,70440,80495,91799],"honeypot":0,"survey":"mace","page":8,"trial_type":"survey-mace","trial_index":16,"time_elapsed":1824180,"internal_node_id":"0.0-16.0","task_version":"prescreen-v0.3","browser_interactions":10},{"responses":{"01":"Yes","01_ages_1":"1","01_ages_2":"2","01_ages_3":"3","01_ages_4":"4","01_ages_5":"5","01_ages_6":"6","01_ages_7":"7","01_ages_8":"8","01_ages_9":"9","01_ages_10":"10","01_ages_11":"11","01_ages_12":"12","01_ages_13":"13","01_ages_14":"14","01_ages_15":"15","01_ages_16":"16","01_ages_17":"17","01_ages_18":"18","02":"Yes","02_ages_1":"1","02_ages_2":"2","02_ages_3":"3","02_ages_4":"4","02_ages_5":"5","02_ages_6":"6","02_ages_7":"7","02_ages_8":"8","02_ages_9":"9","02_ages_10":"10","02_ages_11":"11","02_ages_12":"12","02_ages_13":"13","02_ages_14":"14","02_ages_15":"15","02_ages_16":"16","02_ages_17":"17","02_ages_18":"18","03":"Yes","03_ages_1":"1","03_ages_2":"2","03_ages_3":"3","03_ages_4":"4","03_ages_5":"5","03_ages_6":"6","03_ages_7":"7","03_ages_8":"8","03_ages_9":"9","03_ages_10":"10","03_ages_11":"11","03_ages_12":"12","03_ages_13":"13","03_ages_14":"14","03_ages_15":"15","03_ages_16":"16","03_ages_17":"17","03_ages_18":"18","04":"Yes","04_ages_1":"1","04_ages_2":"2","04_ages_3":"3","04_ages_4":"4","04_ages_5":"5","04_ages_6":"6","04_ages_7":"7","04_ages_8":"8","04_ages_9":"9","04_ages_10":"10","04_ages_11":"11","04_ages_12":"12","04_ages_13":"13","04_ages_14":"14","04_ages_15":"15","04_ages_16":"16","04_ages_17":"17","04_ages_18":"18"},"rt":260737,"item_order":[0,1,2,3],"radio_events":[20345,30032,119376,147048,218152],"checkbox_events":[39280,40056,40624,101993,102369,102696,103033,104024,104705,105592,106792,107496,108168,108608,109160,109720,110736,111488,121792,122288,123168,123561,124496,124976,125824,126480,126928,127288,127911,128560,129168,129896,131305,131712,132232,133248,148368,149720,150320,150999,151816,152344,152928,154328,154936,155704,156448,157112,157624,158416,159528,160104,160983,161688,249072,249872,250400,251384,252247,252784,253368,254064,254496,254879,255456,256120,256823,257456,258736,259224,259784,260320],"key_events":[],"mouse_events":[5000,17200,20345,30032,39280,40056,40624,41496,101993,102369,102696,103033,104024,104705,105592,105984,106792,107496,108168,108608,109160,109720,110736,111488,119376,120440,121064,121792,122288,123168,123561,124024,124496,124976,125432,125824,126480,126928,127288,127911,128560,129168,129896,130720,131305,131712,132232,133248,147048,148368,148920,149720,150320,150999,151344,151816,152344,152928,153840,154328,154936,155704,156448,157112,157624,158416,159528,160104,160983,161688,218152,249072,249872,250400,250784,251384,251727,252247,252784,253368,254064,254496,254879,255456,256120,256823,257456,258135,258736,259224,259784,260320,260737],"honeypot":0,"survey":"mace","page":9,"trial_type":"survey-mace","trial_index":17,"time_elapsed":2084927,"internal_node_id":"0.0-17.0","task_version":"prescreen-v0.3","browser_interactions":18},{"responses":{"01":"No","02":"No","03":"No","04":"No","05":"No","06":"Yes","06_ages_17":"17","07":"No","08":"Yes","08_ages_1":"1","08_ages_2":"2","08_ages_3":"3","08_ages_4":"4","08_ages_5":"5","08_ages_6":"6","08_ages_7":"7","08_ages_8":"8","08_ages_9":"9","08_ages_10":"10","08_ages_11":"11","08_ages_12":"12","08_ages_13":"13","08_ages_14":"14","08_ages_15":"15","08_ages_16":"16","08_ages_17":"17","08_ages_18":"18"},"rt":109132,"item_order":[0,1,2,3,4,5,6,7],"radio_events":[10275,12707,29931,36907,43731,51931,74683,92242],"checkbox_events":[56211,94260,94955,95515,95891,96666,97058,97699,98419,99203,99851,100635,101338,102443,103203,103730,104299,104843,105483],"key_events":[],"mouse_events":[10275,12707,17403,17587,17907,18483,20499,29931,30723,36355,36907,43731,51931,56211,74683,92242,94260,94955,95515,95891,96266,96666,97058,97699,98419,99203,99851,100635,101338,101891,102443,103203,103730,104299,104843,105483,109132],"honeypot":0,"survey":"mace","page":10,"trial_type":"survey-mace","trial_index":18,"time_elapsed":2194070,"internal_node_id":"0.0-18.0","task_version":"prescreen-v0.3","browser_interactions":14,"instructed":0},{"rt":22018,"trial_type":"mental-health-alert","trial_index":19,"time_elapsed":2216092,"internal_node_id":"0.0-19.0","task_version":"prescreen-v0.3","interactions":"[{\"event\":\"focus\",\"trial\":0,\"time\":1397},{\"event\":\"blur\",\"trial\":0,\"time\":4970},{\"event\":\"focus\",\"trial\":0,\"time\":15502},{\"event\":\"blur\",\"trial\":0,\"time\":20219},{\"event\":\"focus\",\"trial\":0,\"time\":26996},{\"event\":\"blur\",\"trial\":0,\"time\":31050},{\"event\":\"focus\",\"trial\":0,\"time\":43362},{\"event\":\"blur\",\"trial\":1,\"time\":49346},{\"event\":\"focus\",\"trial\":1,\"time\":50864},{\"event\":\"blur\",\"trial\":2,\"time\":95221},{\"event\":\"focus\",\"trial\":2,\"time\":105311},{\"event\":\"blur\",\"trial\":2,\"time\":106281},{\"event\":\"focus\",\"trial\":2,\"time\":108152},{\"event\":\"blur\",\"trial\":2,\"time\":111121},{\"event\":\"focus\",\"trial\":2,\"time\":128191},{\"event\":\"blur\",\"trial\":2,\"time\":133516},{\"event\":\"focus\",\"trial\":2,\"time\":141278},{\"event\":\"blur\",\"trial\":2,\"time\":146905},{\"event\":\"focus\",\"trial\":2,\"time\":151257},{\"event\":\"blur\",\"trial\":2,\"time\":155665},{\"event\":\"focus\",\"trial\":2,\"time\":160333},{\"event\":\"blur\",\"trial\":2,\"time\":165562},{\"event\":\"focus\",\"trial\":2,\"time\":170069},{\"event\":\"blur\",\"trial\":2,\"time\":182941},{\"event\":\"focus\",\"trial\":2,\"time\":193128},{\"event\":\"blur\",\"trial\":2,\"time\":196138},{\"event\":\"focus\",\"trial\":2,\"time\":198216},{\"event\":\"blur\",\"trial\":2,\"time\":203372},{\"event\":\"focus\",\"trial\":2,\"time\":215504},{\"event\":\"blur\",\"trial\":2,\"time\":219061},{\"event\":\"focus\",\"trial\":2,\"time\":221861},{\"event\":\"blur\",\"trial\":2,\"time\":226649},{\"event\":\"focus\",\"trial\":2,\"time\":229888},{\"event\":\"blur\",\"trial\":2,\"time\":233673},{\"event\":\"focus\",\"trial\":2,\"time\":239447},{\"event\":\"blur\",\"trial\":2,\"time\":250516},{\"event\":\"focus\",\"trial\":2,\"time\":253479},{\"event\":\"blur\",\"trial\":2,\"time\":258841},{\"event\":\"focus\",\"trial\":2,\"time\":263542},{\"event\":\"blur\",\"trial\":2,\"time\":268876},{\"event\":\"focus\",\"trial\":2,\"time\":272729},{\"event\":\"blur\",\"trial\":2,\"time\":280299},{\"event\":\"focus\",\"trial\":2,\"time\":289711},{\"event\":\"blur\",\"trial\":2,\"time\":294490},{\"event\":\"focus\",\"trial\":2,\"time\":297599},{\"event\":\"blur\",\"trial\":2,\"time\":301369},{\"event\":\"focus\",\"trial\":2,\"time\":315598},{\"event\":\"blur\",\"trial\":2,\"time\":318957},{\"event\":\"focus\",\"trial\":2,\"time\":324640},{\"event\":\"blur\",\"trial\":2,\"time\":335400},{\"event\":\"focus\",\"trial\":2,\"time\":350640},{\"event\":\"blur\",\"trial\":2,\"time\":361148},{\"event\":\"focus\",\"trial\":2,\"time\":366625},{\"event\":\"blur\",\"trial\":2,\"time\":370785},{\"event\":\"focus\",\"trial\":2,\"time\":373768},{\"event\":\"blur\",\"trial\":2,\"time\":386601},{\"event\":\"focus\",\"trial\":2,\"time\":388811},{\"event\":\"blur\",\"trial\":3,\"time\":426817},{\"event\":\"focus\",\"trial\":3,\"time\":433179},{\"event\":\"blur\",\"trial\":3,\"time\":437810},{\"event\":\"focus\",\"trial\":3,\"time\":441035},{\"event\":\"blur\",\"trial\":3,\"time\":443817},{\"event\":\"focus\",\"trial\":3,\"time\":448431},{\"event\":\"blur\",\"trial\":3,\"time\":451632},{\"event\":\"focus\",\"trial\":3,\"time\":456142},{\"event\":\"blur\",\"trial\":3,\"time\":458708},{\"event\":\"focus\",\"trial\":3,\"time\":462829},{\"event\":\"blur\",\"trial\":3,\"time\":468993},{\"event\":\"focus\",\"trial\":3,\"time\":474672},{\"event\":\"blur\",\"trial\":3,\"time\":479601},{\"event\":\"focus\",\"trial\":3,\"time\":487054},{\"event\":\"blur\",\"trial\":3,\"time\":491662},{\"event\":\"focus\",\"trial\":3,\"time\":494239},{\"event\":\"blur\",\"trial\":3,\"time\":497249},{\"event\":\"focus\",\"trial\":3,\"time\":533413},{\"event\":\"blur\",\"trial\":3,\"time\":535833},{\"event\":\"focus\",\"trial\":3,\"time\":540797},{\"event\":\"blur\",\"trial\":3,\"time\":543280},{\"event\":\"focus\",\"trial\":3,\"time\":546791},{\"event\":\"blur\",\"trial\":3,\"time\":548507},{\"event\":\"focus\",\"trial\":3,\"time\":551930},{\"event\":\"blur\",\"trial\":3,\"time\":555650},{\"event\":\"focus\",\"trial\":3,\"time\":561910},{\"event\":\"blur\",\"trial\":3,\"time\":569972},{\"event\":\"focus\",\"trial\":3,\"time\":581326},{\"event\":\"blur\",\"trial\":3,\"time\":611578},{\"event\":\"focus\",\"trial\":3,\"time\":614477},{\"event\":\"blur\",\"trial\":3,\"time\":616336},{\"event\":\"focus\",\"trial\":3,\"time\":622960},{\"event\":\"blur\",\"trial\":3,\"time\":625195},{\"event\":\"focus\",\"trial\":3,\"time\":631336},{\"event\":\"blur\",\"trial\":3,\"time\":636609},{\"event\":\"focus\",\"trial\":3,\"time\":670239},{\"event\":\"blur\",\"trial\":3,\"time\":676434},{\"event\":\"focus\",\"trial\":3,\"time\":685784},{\"event\":\"blur\",\"trial\":3,\"time\":715891},{\"event\":\"focus\",\"trial\":3,\"time\":718699},{\"event\":\"blur\",\"trial\":4,\"time\":753329},{\"event\":\"focus\",\"trial\":4,\"time\":769820},{\"event\":\"blur\",\"trial\":4,\"time\":771089},{\"event\":\"focus\",\"trial\":4,\"time\":808228},{\"event\":\"blur\",\"trial\":4,\"time\":815512},{\"event\":\"focus\",\"trial\":4,\"time\":818447},{\"event\":\"blur\",\"trial\":4,\"time\":825097},{\"event\":\"focus\",\"trial\":4,\"time\":827744},{\"event\":\"blur\",\"trial\":4,\"time\":833281},{\"event\":\"focus\",\"trial\":4,\"time\":853318},{\"event\":\"blur\",\"trial\":4,\"time\":861585},{\"event\":\"focus\",\"trial\":4,\"time\":865697},{\"event\":\"blur\",\"trial\":4,\"time\":867681},{\"event\":\"focus\",\"trial\":4,\"time\":880126},{\"event\":\"blur\",\"trial\":5,\"time\":901029},{\"event\":\"focus\",\"trial\":5,\"time\":908743},{\"event\":\"blur\",\"trial\":5,\"time\":912434},{\"event\":\"focus\",\"trial\":5,\"time\":914407},{\"event\":\"blur\",\"trial\":5,\"time\":915952},{\"event\":\"focus\",\"trial\":5,\"time\":919899},{\"event\":\"blur\",\"trial\":5,\"time\":923920},{\"event\":\"focus\",\"trial\":5,\"time\":934462},{\"event\":\"blur\",\"trial\":6,\"time\":949535},{\"event\":\"focus\",\"trial\":6,\"time\":957423},{\"event\":\"blur\",\"trial\":6,\"time\":967485},{\"event\":\"focus\",\"trial\":6,\"time\":974442},{\"event\":\"blur\",\"trial\":6,\"time\":978656},{\"event\":\"focus\",\"trial\":6,\"time\":982939},{\"event\":\"blur\",\"trial\":7,\"time\":1008208},{\"event\":\"focus\",\"trial\":7,\"time\":1016046},{\"event\":\"blur\",\"trial\":7,\"time\":1019368},{\"event\":\"focus\",\"trial\":7,\"time\":1035304},{\"event\":\"blur\",\"trial\":7,\"time\":1041092},{\"event\":\"focus\",\"trial\":7,\"time\":1048851},{\"event\":\"blur\",\"trial\":7,\"time\":1051177},{\"event\":\"focus\",\"trial\":7,\"time\":1062455},{\"event\":\"blur\",\"trial\":7,\"time\":1067338},{\"event\":\"focus\",\"trial\":7,\"time\":1110225},{\"event\":\"blur\",\"trial\":7,\"time\":1111188},{\"event\":\"focus\",\"trial\":7,\"time\":1118742},{\"event\":\"blur\",\"trial\":7,\"time\":1125397},{\"event\":\"focus\",\"trial\":7,\"time\":1130411},{\"event\":\"blur\",\"trial\":7,\"time\":1133296},{\"event\":\"focus\",\"trial\":7,\"time\":1137151},{\"event\":\"blur\",\"trial\":8,\"time\":1144909},{\"event\":\"focus\",\"trial\":8,\"time\":1146053},{\"event\":\"blur\",\"trial\":9,\"time\":1161644},{\"event\":\"focus\",\"trial\":9,\"time\":1175465},{\"event\":\"blur\",\"trial\":9,\"time\":1183271},{\"event\":\"focus\",\"trial\":9,\"time\":1201308},{\"event\":\"blur\",\"trial\":9,\"time\":1215473},{\"event\":\"focus\",\"trial\":9,\"time\":1222948},{\"event\":\"blur\",\"trial\":9,\"time\":1224562},{\"event\":\"focus\",\"trial\":9,\"time\":1228856},{\"event\":\"blur\",\"trial\":9,\"time\":1230345},{\"event\":\"focus\",\"trial\":9,\"time\":1235478},{\"event\":\"blur\",\"trial\":9,\"time\":1237345},{\"event\":\"focus\",\"trial\":9,\"time\":1243150},{\"event\":\"blur\",\"trial\":9,\"time\":1244868},{\"event\":\"focus\",\"trial\":9,\"time\":1252121},{\"event\":\"blur\",\"trial\":10,\"time\":1284865},{\"event\":\"focus\",\"trial\":10,\"time\":1296287},{\"event\":\"blur\",\"trial\":10,\"time\":1304345},{\"event\":\"focus\",\"trial\":10,\"time\":1312180},{\"event\":\"blur\",\"trial\":10,\"time\":1316354},{\"event\":\"focus\",\"trial\":10,\"time\":1319123},{\"event\":\"blur\",\"trial\":10,\"time\":1321000},{\"event\":\"focus\",\"trial\":10,\"time\":1325380},{\"event\":\"blur\",\"trial\":10,\"time\":1330425},{\"event\":\"focus\",\"trial\":10,\"time\":1345396},{\"event\":\"blur\",\"trial\":11,\"time\":1351936},{\"event\":\"focus\",\"trial\":11,\"time\":1359596},{\"event\":\"blur\",\"trial\":11,\"time\":1362304},{\"event\":\"focus\",\"trial\":11,\"time\":1369163},{\"event\":\"blur\",\"trial\":11,\"time\":1370608},{\"event\":\"focus\",\"trial\":11,\"time\":1375142},{\"event\":\"blur\",\"trial\":12,\"time\":1404254},{\"event\":\"focus\",\"trial\":12,\"time\":1413700},{\"event\":\"blur\",\"trial\":13,\"time\":1426342},{\"event\":\"focus\",\"trial\":13,\"time\":1449342},{\"event\":\"blur\",\"trial\":13,\"time\":1451009},{\"event\":\"focus\",\"trial\":13,\"time\":1456824},{\"event\":\"blur\",\"trial\":13,\"time\":1467900},{\"event\":\"focus\",\"trial\":13,\"time\":1473868},{\"event\":\"blur\",\"trial\":13,\"time\":1475208},{\"event\":\"focus\",\"trial\":13,\"time\":1482607},{\"event\":\"blur\",\"trial\":13,\"time\":1485465},{\"event\":\"focus\",\"trial\":13,\"time\":1490015},{\"event\":\"blur\",\"trial\":13,\"time\":1492008},{\"event\":\"focus\",\"trial\":13,\"time\":1495330},{\"event\":\"blur\",\"trial\":14,\"time\":1552736},{\"event\":\"focus\",\"trial\":14,\"time\":1557796},{\"event\":\"blur\",\"trial\":14,\"time\":1561915},{\"event\":\"focus\",\"trial\":14,\"time\":1563035},{\"event\":\"blur\",\"trial\":14,\"time\":1565701},{\"event\":\"focus\",\"trial\":14,\"time\":1606525},{\"event\":\"blur\",\"trial\":14,\"time\":1617857},{\"event\":\"focus\",\"trial\":14,\"time\":1639543},{\"event\":\"blur\",\"trial\":14,\"time\":1657000},{\"event\":\"focus\",\"trial\":14,\"time\":1659099},{\"event\":\"blur\",\"trial\":14,\"time\":1661248},{\"event\":\"focus\",\"trial\":14,\"time\":1664378},{\"event\":\"blur\",\"trial\":15,\"time\":1668134},{\"event\":\"focus\",\"trial\":15,\"time\":1670500},{\"event\":\"blur\",\"trial\":15,\"time\":1678801},{\"event\":\"focus\",\"trial\":15,\"time\":1683127},{\"event\":\"blur\",\"trial\":15,\"time\":1685751},{\"event\":\"focus\",\"trial\":15,\"time\":1689829},{\"event\":\"blur\",\"trial\":15,\"time\":1691343},{\"event\":\"focus\",\"trial\":15,\"time\":1695741},{\"event\":\"blur\",\"trial\":15,\"time\":1715753},{\"event\":\"focus\",\"trial\":15,\"time\":1724898},{\"event\":\"blur\",\"trial\":16,\"time\":1739256},{\"event\":\"focus\",\"trial\":16,\"time\":1745303},{\"event\":\"blur\",\"trial\":16,\"time\":1748971},{\"event\":\"focus\",\"trial\":16,\"time\":1775524},{\"event\":\"blur\",\"trial\":16,\"time\":1778385},{\"event\":\"focus\",\"trial\":16,\"time\":1788472},{\"event\":\"blur\",\"trial\":16,\"time\":1790738},{\"event\":\"focus\",\"trial\":16,\"time\":1801775},{\"event\":\"blur\",\"trial\":16,\"time\":1803600},{\"event\":\"focus\",\"trial\":16,\"time\":1809342},{\"event\":\"blur\",\"trial\":17,\"time\":1830248},{\"event\":\"focus\",\"trial\":17,\"time\":1840963},{\"event\":\"blur\",\"trial\":17,\"time\":1856921},{\"event\":\"focus\",\"trial\":17,\"time\":1860037},{\"event\":\"blur\",\"trial\":17,\"time\":1899727},{\"event\":\"focus\",\"trial\":17,\"time\":1902446},{\"event\":\"blur\",\"trial\":17,\"time\":1936585},{\"event\":\"focus\",\"trial\":17,\"time\":1942070},{\"event\":\"blur\",\"trial\":17,\"time\":1959200},{\"event\":\"focus\",\"trial\":17,\"time\":1965370},{\"event\":\"blur\",\"trial\":17,\"time\":1986881},{\"event\":\"focus\",\"trial\":17,\"time\":1993198},{\"event\":\"blur\",\"trial\":17,\"time\":2001992},{\"event\":\"focus\",\"trial\":17,\"time\":2031603},{\"event\":\"blur\",\"trial\":17,\"time\":2033871},{\"event\":\"focus\",\"trial\":17,\"time\":2038405},{\"event\":\"blur\",\"trial\":17,\"time\":2060918},{\"event\":\"focus\",\"trial\":17,\"time\":2071462},{\"event\":\"blur\",\"trial\":18,\"time\":2106777},{\"event\":\"focus\",\"trial\":18,\"time\":2112992},{\"event\":\"blur\",\"trial\":18,\"time\":2116193},{\"event\":\"focus\",\"trial\":18,\"time\":2119729},{\"event\":\"blur\",\"trial\":18,\"time\":2122640},{\"event\":\"focus\",\"trial\":18,\"time\":2127421},{\"event\":\"blur\",\"trial\":18,\"time\":2129321},{\"event\":\"focus\",\"trial\":18,\"time\":2133127},{\"event\":\"blur\",\"trial\":18,\"time\":2140164},{\"event\":\"focus\",\"trial\":18,\"time\":2140763},{\"event\":\"blur\",\"trial\":18,\"time\":2153272},{\"event\":\"focus\",\"trial\":18,\"time\":2156778},{\"event\":\"blur\",\"trial\":18,\"time\":2160593},{\"event\":\"focus\",\"trial\":18,\"time\":2176088},{\"event\":\"blur\",\"trial\":19,\"time\":2198216},{\"event\":\"focus\",\"trial\":19,\"time\":2213974}]"}]