[{"view_history":[{"page_index":0,"viewing_time":2476},{"page_index":1,"viewing_time":4313},{"page_index":2,"viewing_time":4073},{"page_index":3,"viewing_time":1165}],"rt":12028,"trial_type":"instructions","trial_index":0,"time_elapsed":12040,"internal_node_id":"0.0-0.0","task_version":"prescreen-v0.3"},{"rt":14804,"responses":{"age":"30","gender-categorical":"Female","gender-free-response":"","ethnicity":"Not Hispanic or Latino","race":["White"],"education":"Some college"},"trial_type":"survey-demo","trial_index":1,"time_elapsed":26854,"internal_node_id":"0.0-1.0","task_version":"prescreen-v0.3"},{"responses":{"Q18":"2","Q02":"2","Q09":"1","Q04":"1","Q20":"2","Q14":"1","Q05":"2","Q21":"3","Q01":"0","Q13":"1","Q08":"3","Q15":"1","Q07":"2","Q19":"1","Q06":"0","Q03":"2","Q17":"1","Q12":"1","Q16":"2","Q11":"1","Q10":"0"},"rt":104163,"item_order":[17,1,8,3,19,13,4,20,0,12,7,14,6,18,5,2,16,11,15,10,9],"radio_events":[6218,9857,13693,18732,21176,28073,33435.00000000001,37107,42264,46260,50561,57346,63453,64758,69272,74899,79816,82864,85499,91696,95632,98733,101802.00000000001],"key_events":[],"mouse_events":[6218,9857,13693,17883.000000000007,18732,21176,28073,31422,32219,33435.00000000001,37107,42264,46260,50561,57346,63453,64758,69272,74899,79190,79816,82864,85499,90807,91696,95632,98733,101802.00000000001,104147],"straightlining":0.42857142857142855,"zigzagging":0.7,"honeypot":0,"survey":"sns","trial_type":"survey-template","trial_index":2,"time_elapsed":131019,"internal_node_id":"0.0-2.0","task_version":"prescreen-v0.3","browser_interactions":0,"infrequency":0},{"responses":{"Q09":"2","Q07":"3","Q05":"3","Q11":"2","Q02":"1","Q10":"2","Q06":"2","Q13":"0","Q12":"2","Q08":"2","Q01":"2","Q04":"3","Q03":"2"},"rt":60877,"item_order":[8,6,4,10,1,9,5,12,11,7,0,3,2],"radio_events":[6320,9995,13568,16463,19929,22901,27066,32341,46397,50229,51904,54887,59382],"key_events":[],"mouse_events":[6320,9314,9995,13568,16463,19929,22901,25919,27066,32341,46397,49386,50229,51904,54887,59382,60866],"straightlining":0.6153846153846154,"zigzagging":0.5,"honeypot":0,"survey":"bisbas","trial_type":"survey-template","trial_index":3,"time_elapsed":191898,"internal_node_id":"0.0-3.0","task_version":"prescreen-v0.3","browser_interactions":0,"infrequency":0},{"responses":{"Q01":"2","Q02":"1","Q03":"2"},"rt":19493,"radio_events":[6389,10128,15356,17896],"key_events":[],"mouse_events":[6389,10128,15356,17896,19486],"survey":"map","page":1,"trial_type":"survey-map","trial_index":4,"time_elapsed":211395,"internal_node_id":"0.0-4.0","task_version":"prescreen-v0.3","browser_interactions":0},{"responses":{"Q04":"3","Q05":"2","Q06":"3"},"rt":17577.99999999997,"radio_events":[5869,13031.99999999997,16521.99999999997],"key_events":[],"mouse_events":[5869,12224.99999999997,13031.99999999997,16521.99999999997,17572.99999999997],"survey":"map","page":2,"trial_type":"survey-map","trial_index":5,"time_elapsed":228975,"internal_node_id":"0.0-5.0","task_version":"prescreen-v0.3","browser_interactions":0},{"responses":{"Q07":"3","Q08":"2","Q09":"2"},"rt":15723.99999999997,"radio_events":[8188.999999999971,11667.99999999997,14679],"key_events":[],"mouse_events":[8188.999999999971,11667.99999999997,14679,15717.99999999997],"survey":"map","page":3,"trial_type":"survey-map","trial_index":6,"time_elapsed":244703,"internal_node_id":"0.0-6.0","task_version":"prescreen-v0.3","browser_interactions":0},{"responses":{"Q10":"1","Q11":"1","Q12":"2","Q13":"2","Q16":"0","Q14":"3","Q15":"3"},"rt":32481,"radio_events":[4315,7208,12235,18702,22051,25710.00000000006,29943,31643],"key_events":[],"mouse_events":[4315,7208,11494.00000000003,12235,18702,22051,25710.00000000006,28822,29943,31048,31643,32472.00000000006],"survey":"map","page":4,"trial_type":"survey-map","trial_index":7,"time_elapsed":277187,"internal_node_id":"0.0-7.0","task_version":"prescreen-v0.3","browser_interactions":0,"infrequency":0},{"view_history":[{"page_index":0,"viewing_time":2589},{"page_index":1,"viewing_time":4455}],"rt":7045,"trial_type":"instructions","trial_index":8,"time_elapsed":284234,"internal_node_id":"0.0-8.0","task_version":"prescreen-v0.3"},{"responses":{"01":"Yes","01_ages_8":"8","01_ages_9":"9","01_ages_10":"10","01_ages_11":"11","01_ages_12":"12","01_ages_13":"13","01_ages_14":"14","01_ages_15":"15","01_ages_16":"16","01_ages_17":"17","01_ages_18":"18","02":"Yes","02_ages_8":"8","02_ages_9":"9","02_ages_10":"10","02_ages_11":"11","02_ages_12":"12","02_ages_13":"13","02_ages_14":"14","02_ages_15":"15","02_ages_16":"16","02_ages_17":"17","02_ages_18":"18","03":"Yes","03_ages_8":"8","03_ages_9":"9","03_ages_10":"10","03_ages_11":"11","03_ages_12":"12","03_ages_13":"13","03_ages_14":"14","03_ages_15":"15","03_ages_16":"16","03_ages_17":"17","03_ages_18":"18","04":"No","05":"No","06":"Yes","06_ages_8":"8","06_ages_9":"9","06_ages_10":"10","06_ages_11":"11","06_ages_12":"12","06_ages_13":"13","06_ages_14":"14","06_ages_15":"15","06_ages_16":"16","06_ages_17":"17","06_ages_18":"18"},"rt":87949,"item_order":[0,1,2,3,4,5],"radio_events":[8076,25415,37499.00000000006,41821.00000000006,46769,49737.00000000006],"checkbox_events":[12400,13180,14807,15333.000000000058,16801,19937,20514,21063,21942,27181,27848,28542,29068,30346,30895,31389,32905,33714,51484,52322,52866,53414,53899,55060,55896,57381,58205,59881,60584,61272,61976,62666,63351,64054,64601,65137,67728,68352,79258,79886.00000000006,82534,83153,85190,85824],"key_events":[],"mouse_events":[0,8076,12400,13180,13873,14807,15333.000000000058,15982,16801,19937,20514,21063,21942,25415,27181,27848,28542,29068,29578,30346,30895,31389,32265,32905,33714,37499.00000000006,41821.00000000006,46769,49737.00000000006,51484,52322,52866,53414,53899,55060,55896,56910.00000000006,57381,58205,59881,60584,61272,61976,62666,63351,64054,64601,65137,67728,68352,79258,79886.00000000006,82534,83153,85190,85824,87933],"honeypot":0,"survey":"mace","page":1,"trial_type":"survey-mace","trial_index":9,"time_elapsed":372188,"internal_node_id":"0.0-9.0","task_version":"prescreen-v0.3","browser_interactions":0},{"responses":{"01":"Yes","01_ages_14":"14","01_ages_15":"15","01_ages_16":"16","01_ages_17":"17","01_ages_18":"18","02":"No","03":"Yes","03_ages_5":"5","03_ages_6":"6","03_ages_7":"7","03_ages_8":"8","03_ages_9":"9","03_ages_10":"10","03_ages_11":"11","04":"Yes","04_ages_5":"5","04_ages_6":"6","04_ages_7":"7","04_ages_8":"8","04_ages_9":"9","05":"Yes","05_ages_5":"5","05_ages_6":"6","05_ages_7":"7","05_ages_8":"8","05_ages_9":"9","06":"No","07":"No","08":"No"},"rt":50636,"item_order":[0,1,2,3,4,5,6,7],"radio_events":[2661,20970,22913.00000000006,32467,40151.00000000006,46059,48014.00000000006,49711],"checkbox_events":[11336,12549,13322,14068,16411,25025,25634,26225,26812.00000000006,27950,28505,29210,34078,34619,35310,35862,37622,41414,41974,42704.00000000006,43314,44011],"key_events":[],"mouse_events":[2661,11336,12549,13322,14068,16411,20970,22913.00000000006,25025,25634,26225,26812.00000000006,27481,27950,28505,29210,32467,34078,34619,35310,35862,37622,40151.00000000006,41414,41974,42704.00000000006,43314,44011,46059,48014.00000000006,49711,50620],"honeypot":0,"survey":"mace","page":2,"trial_type":"survey-mace","trial_index":10,"time_elapsed":422829,"internal_node_id":"0.0-10.0","task_version":"prescreen-v0.3","browser_interactions":0},{"responses":{"01":"Yes","01_ages_5":"5","01_ages_6":"6","01_ages_7":"7","01_ages_8":"8","01_ages_9":"9","01_ages_10":"10","02":"Yes","02_ages_5":"5","02_ages_6":"6","02_ages_7":"7","02_ages_8":"8","02_ages_9":"9","02_ages_10":"10","03":"No","04":"No"},"rt":28923,"item_order":[0,1,2,3],"radio_events":[3615.000000000058,18262,19418,22004],"checkbox_events":[10222,11240.000000000058,12061,12789,13682.000000000058,14328,23203,23935,24810,25533.00000000006,26714,27409],"key_events":[],"mouse_events":[3615.000000000058,10222,11240.000000000058,12061,12789,13682.000000000058,14328,18262,19418,22004,23203,23935,24810,25533.00000000006,26204,26714,27409,28913.00000000006],"honeypot":0,"survey":"mace","page":3,"trial_type":"survey-mace","trial_index":11,"time_elapsed":451756,"internal_node_id":"0.0-11.0","task_version":"prescreen-v0.3","browser_interactions":0},{"responses":{"01":"No","02":"No"},"rt":12895,"item_order":[0,1],"radio_events":[2328,5312.000000000058],"checkbox_events":[],"key_events":[],"mouse_events":[2328,5312.000000000058,12889],"honeypot":0,"survey":"mace","page":4,"trial_type":"survey-mace","trial_index":12,"time_elapsed":464655,"internal_node_id":"0.0-12.0","task_version":"prescreen-v0.3","browser_interactions":0},{"responses":{"01":"No","02":"No","03":"No","04":"No","05":"No"},"rt":15147.999999999942,"item_order":[0,1,2,3,4],"radio_events":[5431.999999999942,8114.999999999942,10298.999999999942,13029,13895.999999999942],"checkbox_events":[],"key_events":[],"mouse_events":[5431.999999999942,8114.999999999942,10298.999999999942,13029,13895.999999999942,15137.999999999942],"honeypot":0,"survey":"mace","page":5,"trial_type":"survey-mace","trial_index":13,"time_elapsed":479811,"internal_node_id":"0.0-13.0","task_version":"prescreen-v0.3","browser_interactions":0},{"responses":{"01":"Yes","01_ages_6":"6","01_ages_7":"7","01_ages_8":"8","01_ages_9":"9","01_ages_10":"10","01_ages_11":"11","01_ages_12":"12","01_ages_13":"13","01_ages_14":"14","01_ages_15":"15","01_ages_16":"16","01_ages_17":"17","01_ages_18":"18","02":"Yes","02_ages_8":"8","02_ages_9":"9","02_ages_10":"10","02_ages_11":"11","02_ages_12":"12","02_ages_13":"13","02_ages_14":"14","02_ages_15":"15","02_ages_16":"16","02_ages_17":"17","02_ages_18":"18","03":"Yes","03_ages_8":"8","03_ages_9":"9","03_ages_10":"10","03_ages_11":"11","03_ages_12":"12","03_ages_13":"13","03_ages_14":"14","03_ages_15":"15","03_ages_16":"16","03_ages_17":"17","03_ages_18":"18","04":"Yes","04_ages_7":"7","04_ages_8":"8","04_ages_9":"9","04_ages_10":"10","04_ages_11":"11","04_ages_12":"12","04_ages_13":"13","04_ages_14":"14","04_ages_15":"15","04_ages_16":"16","04_ages_17":"17","04_ages_18":"18","05":"Yes","05_ages_8":"8","05_ages_9":"9","05_ages_10":"10","05_ages_11":"11","05_ages_12":"12","05_ages_13":"13","05_ages_14":"14","05_ages_15":"15","05_ages_16":"16","05_ages_17":"17","05_ages_18":"18"},"rt":83496,"item_order":[0,1,2,3,4],"radio_events":[10108,25990,27324,29425,31950],"checkbox_events":[13117,13716,14178,14804,15282,16281,16753.00000000006,17564,18225,18694,19991,20730,21463,42463,43154.00000000006,43636,44463,45139,45622,46491,47009,47856,48750,49531,53418,55632,56422,57080,57750,58252,58866,59357,60240,60880,61555,64944,65654,66394,66930,67460,68120,68621,69348,69784,70737,71507,76057.00000000012,76503,77165,77737,78333,78799,79439,79872,80600.00000000012,81054,81714,82386],"key_events":[],"mouse_events":[10108,13117,13716,14178,14804,15282,16281,16753.00000000006,17564,18225,18694,19397.00000000006,19991,20730,21463,25990,26555,27324,29425,31950,42463,43154.00000000006,43636,44463,45139,45622,46491,47009,47856,48367,48750,49531,53418,55632,56422,57080,57750,58252,58866,59357,60240,60880,61555,64944,65654,66394,66930,67460,68120,68621,69348,69784,70737,71507,76057.00000000012,76503,77165,77737,78333,78799,79439,79872,80600.00000000012,81054,81714,82386,83483],"honeypot":0,"survey":"mace","page":6,"trial_type":"survey-mace","trial_index":14,"time_elapsed":563310,"internal_node_id":"0.0-14.0","task_version":"prescreen-v0.3","browser_interactions":0},{"responses":{"01":"Yes","01_ages_8":"8","01_ages_9":"9","01_ages_10":"10","01_ages_11":"11","01_ages_12":"12","01_ages_13":"13","02":"Yes","02_ages_8":"8","02_ages_9":"9","02_ages_10":"10","02_ages_11":"11","02_ages_12":"12","02_ages_13":"13","02_ages_14":"14","02_ages_15":"15","02_ages_16":"16","03":"Yes","03_ages_15":"15","03_ages_16":"16","03_ages_17":"17","03_ages_18":"18","04":"Yes","04_ages_15":"15","04_ages_16":"16","04_ages_17":"17","04_ages_18":"18","05":"No","06":"Yes","06_ages_14":"14","06_ages_15":"15","07":"Yes","07_ages_14":"14","07_ages_15":"15"},"rt":63989.99999999988,"item_order":[0,1,2,3,4,5,6],"radio_events":[6479.999999999884,20069.999999999884,26236.999999999884,36645.99999999988,38637.99999999988,45270.99999999988,53920.99999999988],"checkbox_events":[8831.999999999884,9722.999999999884,10339.999999999884,11043.999999999884,11686.999999999884,12460.999999999884,21391.999999999884,22221.999999999884,27934.999999999884,28887.999999999884,41067.99999999988,41737.99999999988,42468.99999999988,46397.99999999988,47031.99999999988,47581.99999999988,48260.99999999988,49934.99999999988,55320.99999999988,55936.99999999988,56551.99999999988,57062.99999999988,57532.99999999988,58242.99999999988,58786.99999999988,59688.99999999988,62000],"key_events":[],"mouse_events":[6479.999999999884,8831.999999999884,9298,9722.999999999884,10339.999999999884,11043.999999999884,11686.999999999884,12460.999999999884,20069.999999999884,21391.999999999884,22221.999999999884,26236.999999999884,27305.999999999884,27934.999999999884,28887.999999999884,36645.99999999988,38637.99999999988,41067.99999999988,41737.99999999988,42468.99999999988,45270.99999999988,46397.99999999988,47031.99999999988,47581.99999999988,48260.99999999988,49934.99999999988,53920.99999999988,55320.99999999988,55936.99999999988,56551.99999999988,57062.99999999988,57532.99999999988,58242.99999999988,58786.99999999988,59688.99999999988,62000,63976],"honeypot":0,"survey":"mace","page":7,"trial_type":"survey-mace","trial_index":15,"time_elapsed":627305,"internal_node_id":"0.0-15.0","task_version":"prescreen-v0.3","browser_interactions":0},{"responses":{"01":"Yes","01_ages_5":"5","01_ages_6":"6","01_ages_7":"7","01_ages_8":"8","01_ages_9":"9","01_ages_10":"10","01_ages_11":"11","01_ages_12":"12","01_ages_13":"13","01_ages_14":"14","01_ages_15":"15","01_ages_16":"16","01_ages_17":"17","01_ages_18":"18","02":"No","03":"Yes","03_ages_5":"5","03_ages_6":"6","03_ages_7":"7","03_ages_8":"8","03_ages_9":"9","03_ages_10":"10","03_ages_11":"11","03_ages_12":"12","03_ages_13":"13","03_ages_14":"14","03_ages_15":"15","03_ages_16":"16","03_ages_17":"17","03_ages_18":"18","04":"Yes","04_ages_5":"5","04_ages_6":"6","04_ages_7":"7","04_ages_8":"8","04_ages_9":"9","04_ages_10":"10","04_ages_11":"11","04_ages_12":"12","04_ages_13":"13","04_ages_14":"14","04_ages_15":"15","04_ages_16":"16","04_ages_17":"17","04_ages_18":"18"},"rt":50519,"item_order":[0,1,2,3],"radio_events":[4418,22708,24710,38091],"checkbox_events":[7035,7652,8286,8913,9386,11648,13109,13630,14031.000000000116,14648,16433,16871,17414,17952,26373,27074.000000000116,27579.000000000116,29067,29570,30616,31064,31539,32272,32796,33293,34241,34734,35374,39740,40243,41127.00000000012,41682,43268,44788,45347,45918,46891,47396.00000000012,48059,48972,49468.00000000012,49958],"key_events":[],"mouse_events":[4418,7035,7652,8286,8913,9386,11648,13109,13630,14031.000000000116,14648,15057,15472,16433,16871,17414,17952,22708,24710,26373,27074.000000000116,27579.000000000116,29067,29570,30616,31064,31539,32272,32796,33293,34241,34734,35374,38091,39740,40243,41127.00000000012,41682,42106,42523,43268,44788,45347,45918,46891,47396.00000000012,48059,48972,49468.00000000012,49958,50508],"honeypot":0,"survey":"mace","page":8,"trial_type":"survey-mace","trial_index":16,"time_elapsed":677829,"internal_node_id":"0.0-16.0","task_version":"prescreen-v0.3","browser_interactions":0},{"responses":{"01":"Yes","01_ages_5":"5","01_ages_6":"6","01_ages_7":"7","01_ages_8":"8","01_ages_9":"9","01_ages_10":"10","01_ages_11":"11","01_ages_12":"12","01_ages_13":"13","01_ages_14":"14","01_ages_15":"15","01_ages_16":"16","01_ages_17":"17","01_ages_18":"18","02":"Yes","02_ages_5":"5","02_ages_6":"6","02_ages_7":"7","02_ages_8":"8","02_ages_9":"9","02_ages_10":"10","02_ages_11":"11","02_ages_12":"12","02_ages_13":"13","02_ages_14":"14","02_ages_15":"15","02_ages_16":"16","02_ages_17":"17","02_ages_18":"18","03":"Yes","03_ages_5":"5","03_ages_6":"6","03_ages_7":"7","03_ages_8":"8","03_ages_9":"9","03_ages_10":"10","03_ages_11":"11","03_ages_12":"12","03_ages_13":"13","03_ages_14":"14","03_ages_15":"15","03_ages_16":"16","03_ages_17":"17","03_ages_18":"18","04":"Yes","04_ages_5":"5","04_ages_6":"6","04_ages_7":"7","04_ages_8":"8","04_ages_9":"9","04_ages_10":"10","04_ages_11":"11","04_ages_12":"12","04_ages_13":"13","04_ages_14":"14","04_ages_15":"15","04_ages_16":"16","04_ages_17":"17","04_ages_18":"18"},"rt":55139,"item_order":[0,1,2,3],"radio_events":[2402,16315,30578,34514],"checkbox_events":[4637,5190,5695,6189,6657,7358,7848,8601,9253,9801,11014,11433,12283,12855,17836,18320,18899,19670,20215,21391,22178,22835,23547.000000000116,24288,25026,25541,26121,26878,35517,36198,36648.00000000012,37486,38187,38897,39745,40252,40979,41838,42328,42811,43544,44130,45905,46551,47252,47966,48510,49042.00000000012,49741,50169,50927.00000000012,51713,52457,52936,53637,54415],"key_events":[],"mouse_events":[2402,4637,5190,5695,6189,6657,7358,7848,8601,9253,9801,10361,11014,11433,12283,12855,16315,17836,18320,18899,19670,20215,20840,21391,22178,22835,23547.000000000116,24288,25026,25541,26121,26878,30578,34514,35517,36198,36648.00000000012,37486,38187,38897,39745,40252,40979,41838,42328,42811,43544,44130,45905,46551,47252,47966,48510,49042.00000000012,49741,50169,50927.00000000012,51713,52457,52936,53637,54415,55129.00000000012],"honeypot":0,"survey":"mace","page":9,"trial_type":"survey-mace","trial_index":17,"time_elapsed":732973,"internal_node_id":"0.0-17.0","task_version":"prescreen-v0.3","browser_interactions":0},{"responses":{"01":"No","02":"No","03":"Yes","03_ages_16":"16","03_ages_17":"17","03_ages_18":"18","04":"Yes","04_ages_16":"16","04_ages_17":"17","04_ages_18":"18","05":"Yes","05_ages_17":"17","05_ages_18":"18","06":"Yes","06_ages_17":"17","07":"Yes","07_ages_14":"14","07_ages_15":"15","07_ages_16":"16","07_ages_17":"17","07_ages_18":"18","08":"Yes","08_ages_18":"18"},"rt":54243.99999999988,"item_order":[0,1,2,3,4,5,6,7],"radio_events":[2388.9999999998836,3935.9999999998836,17006.999999999884,20767.999999999884,30413.999999999884,36264.99999999988,41469.99999999988,48234.99999999988],"checkbox_events":[18142.999999999884,25857.999999999884,26420.999999999884,26900.999999999884,27386.999999999884,28060.999999999884,32871.99999999988,38419.99999999988,39156.99999999988,43179.99999999988,43776.99999999988,44210.99999999988,49223.99999999988,49900.99999999988,50346.99999999988],"key_events":[],"mouse_events":[2388.9999999998836,3935.9999999998836,17006.999999999884,18142.999999999884,20767.999999999884,25857.999999999884,26420.999999999884,26900.999999999884,27386.999999999884,28060.999999999884,30413.999999999884,32077.999999999884,32871.99999999988,36264.99999999988,38419.99999999988,39156.99999999988,41469.99999999988,43179.99999999988,43776.99999999988,44210.99999999988,48234.99999999988,49223.99999999988,49900.99999999988,50346.99999999988,54228.99999999988],"honeypot":0,"survey":"mace","page":10,"trial_type":"survey-mace","trial_index":18,"time_elapsed":787224,"internal_node_id":"0.0-18.0","task_version":"prescreen-v0.3","browser_interactions":0,"instructed":0},{"rt":7109,"trial_type":"mental-health-alert","trial_index":19,"time_elapsed":794338,"internal_node_id":"0.0-19.0","task_version":"prescreen-v0.3","interactions":"[]"}]