[{"view_history":[{"page_index":0,"viewing_time":2197.599999997765},{"page_index":1,"viewing_time":5371.10000000149},{"page_index":2,"viewing_time":2956.699999999255},{"page_index":3,"viewing_time":1732.1000000014901}],"rt":12258.89999999851,"trial_type":"instructions","trial_index":0,"time_elapsed":12273,"internal_node_id":"0.0-0.0","task_version":"prescreen-v0.3"},{"rt":17593,"responses":{"age":"24","gender-categorical":"Female","gender-free-response":"","ethnicity":"Not Hispanic or Latino","race":["White"],"education":"Bachelor degree"},"trial_type":"survey-demo","trial_index":1,"time_elapsed":29878,"internal_node_id":"0.0-1.0","task_version":"prescreen-v0.3"},{"responses":{"Q10":"0","Q20":"0","Q15":"2","Q09":"2","Q13":"2","Q05":"0","Q02":"0","Q04":"1","Q08":"2","Q01":"1","Q17":"1","Q03":"0","Q14":"2","Q12":"0","Q18":"0","Q16":"1","Q19":"0","Q11":"0","Q21":"3","Q07":"0","Q06":"0"},"rt":146715.3999999985,"item_order":[9,19,14,8,12,4,1,3,7,0,16,2,13,11,17,15,18,10,20,6,5],"radio_events":[12086.599999997765,18444.79999999702,27446.099999997765,33337.699999999255,37643.89999999851,39537.599999997765,57190.39999999851,60145.599999997765,68284,74721.59999999776,79642.79999999702,81242.5,85556.79999999702,88320.69999999925,92251.29999999702,96997.89999999851,106418.39999999851,115888.59999999776,128609.59999999776,131357,135176.29999999702,140226.09999999776,145273.29999999702],"key_events":[],"mouse_events":[12086.599999997765,18444.79999999702,27446.099999997765,33337.699999999255,37643.89999999851,39537.599999997765,57190.39999999851,60145.599999997765,68284,74721.59999999776,79642.79999999702,81242.5,85556.79999999702,88320.69999999925,92251.29999999702,96997.89999999851,106418.39999999851,115888.59999999776,128609.59999999776,131357,135176.29999999702,140226.09999999776,145273.29999999702,146711.5],"straightlining":0.5238095238095238,"zigzagging":0.4,"honeypot":0,"survey":"sns","trial_type":"survey-template","trial_index":2,"time_elapsed":176610,"internal_node_id":"0.0-2.0","task_version":"prescreen-v0.3","browser_interactions":0,"infrequency":0},{"responses":{"Q06":"3","Q04":"1","Q02":"1","Q05":"2","Q13":"0","Q09":"2","Q12":"1","Q01":"1","Q11":"3","Q03":"1","Q10":"2","Q08":"3","Q07":"3"},"rt":74849.60000000149,"item_order":[5,3,1,4,12,8,11,0,10,2,9,7,6],"radio_events":[10219.60000000149,16469.800000000745,22048.10000000149,24021.199999999255,29035,32135.199999999255,40169,42622,49512.10000000149,51621.699999999255,59165.800000000745,63424.400000002235,66993.60000000149,69966,73752.90000000224],"key_events":[],"mouse_events":[10219.60000000149,16469.800000000745,22048.10000000149,24021.199999999255,29035,32135.199999999255,40169,42622,49512.10000000149,51621.699999999255,59165.800000000745,63424.400000002235,66993.60000000149,69966,73752.90000000224,74847.40000000224],"straightlining":0.38461538461538464,"zigzagging":0.3333333333333333,"honeypot":0,"survey":"bisbas","trial_type":"survey-template","trial_index":3,"time_elapsed":251471,"internal_node_id":"0.0-3.0","task_version":"prescreen-v0.3","browser_interactions":0,"infrequency":0},{"responses":{"Q01":"3","Q02":"3","Q03":"3"},"rt":47528.800000000745,"radio_events":[31489.800000000745,38232.599999997765,45265.39999999851],"key_events":[],"mouse_events":[31489.800000000745,38232.599999997765,45265.39999999851,47527.800000000745],"survey":"map","page":1,"trial_type":"survey-map","trial_index":4,"time_elapsed":299009,"internal_node_id":"0.0-4.0","task_version":"prescreen-v0.3","browser_interactions":0},{"responses":{"Q04":"3","Q05":"2","Q06":"2"},"rt":21187.5,"radio_events":[11587.29999999702,14358.79999999702,19713.699999999255],"key_events":[],"mouse_events":[11587.29999999702,14358.79999999702,19713.699999999255,21186.199999999255],"survey":"map","page":2,"trial_type":"survey-map","trial_index":5,"time_elapsed":320206,"internal_node_id":"0.0-5.0","task_version":"prescreen-v0.3","browser_interactions":0},{"responses":{"Q07":"3","Q08":"1","Q09":"3"},"rt":28265.199999999255,"radio_events":[11683,20760.599999997765,24387.5],"key_events":[],"mouse_events":[11683,20760.599999997765,24387.5,27415.099999997765,28264.099999997765],"survey":"map","page":3,"trial_type":"survey-map","trial_index":6,"time_elapsed":348478,"internal_node_id":"0.0-6.0","task_version":"prescreen-v0.3","browser_interactions":0},{"responses":{"Q10":"3","Q11":"3","Q12":"1","Q13":"1","Q16":"0","Q14":"2","Q15":"2"},"rt":43352.099999997765,"radio_events":[10477.39999999851,12922.5,17229.199999999255,26335.099999997765,33329.099999997765,39099.199999999255,41928.699999999255],"key_events":[],"mouse_events":[10477.39999999851,12922.5,17229.199999999255,26335.099999997765,33329.099999997765,39099.199999999255,41928.699999999255,43350.099999997765],"survey":"map","page":4,"trial_type":"survey-map","trial_index":7,"time_elapsed":391839,"internal_node_id":"0.0-7.0","task_version":"prescreen-v0.3","browser_interactions":0,"infrequency":0},{"view_history":[{"page_index":0,"viewing_time":2063},{"page_index":1,"viewing_time":5304.800000000745}],"rt":7369.10000000149,"trial_type":"instructions","trial_index":8,"time_elapsed":399215,"internal_node_id":"0.0-8.0","task_version":"prescreen-v0.3"},{"responses":{"01":"No","02":"No","03":"No","04":"Yes","04_ages_14":"14","04_ages_15":"15","04_ages_16":"16","04_ages_17":"17","04_ages_18":"18","05":"No","06":"No"},"rt":47393.5,"item_order":[0,1,2,3,4,5],"radio_events":[12946.699999999255,22262.5,25474,27239.699999999255,29029.5,43056.300000000745,46475.5],"checkbox_events":[37831.699999999255,38446.800000000745,39141.599999997765,39748.699999999255,40388.199999999255],"key_events":[],"mouse_events":[0.19999999925494194,12946.699999999255,22262.5,25474,27239.699999999255,29029.5,37831.699999999255,38446.800000000745,39141.599999997765,39748.699999999255,40388.199999999255,43056.300000000745,46475.5,47387.300000000745],"honeypot":0,"survey":"mace","page":1,"trial_type":"survey-mace","trial_index":9,"time_elapsed":446619,"internal_node_id":"0.0-9.0","task_version":"prescreen-v0.3","browser_interactions":0},{"responses":{"01":"No","02":"No","03":"No","04":"No","05":"No","06":"No","07":"No","08":"No"},"rt":17608,"item_order":[0,1,2,3,4,5,6,7],"radio_events":[4016.89999999851,7374.199999999255,8491.89999999851,9443.199999999255,11568.199999999255,13063,14548.699999999255,16993.699999999255],"checkbox_events":[],"key_events":[],"mouse_events":[2963.7999999970198,4016.89999999851,7374.199999999255,8491.89999999851,9443.199999999255,11568.199999999255,13063,14548.699999999255,16993.699999999255,17600.29999999702],"honeypot":0,"survey":"mace","page":2,"trial_type":"survey-mace","trial_index":10,"time_elapsed":464238,"internal_node_id":"0.0-10.0","task_version":"prescreen-v0.3","browser_interactions":0},{"responses":{"01":"No","02":"No","03":"No","04":"No"},"rt":10609.89999999851,"item_order":[0,1,2,3],"radio_events":[2627,6573.5,8034.800000000745,9378],"checkbox_events":[],"key_events":[],"mouse_events":[2627,6573.5,8034.800000000745,9378,10606.5],"honeypot":0,"survey":"mace","page":3,"trial_type":"survey-mace","trial_index":11,"time_elapsed":474857,"internal_node_id":"0.0-11.0","task_version":"prescreen-v0.3","browser_interactions":0},{"responses":{"01":"No","02":"No"},"rt":11888.800000000745,"item_order":[0,1],"radio_events":[6246.699999999255,9785.89999999851],"checkbox_events":[],"key_events":[],"mouse_events":[6246.699999999255,9785.89999999851,11886.699999999255],"honeypot":0,"survey":"mace","page":4,"trial_type":"survey-mace","trial_index":12,"time_elapsed":486753,"internal_node_id":"0.0-12.0","task_version":"prescreen-v0.3","browser_interactions":0},{"responses":{"01":"No","02":"No","03":"No","04":"No","05":"No"},"rt":23993.199999999255,"item_order":[0,1,2,3,4],"radio_events":[8100.29999999702,14696.199999999255,17231.599999997765,20752.199999999255,23309.199999999255],"checkbox_events":[],"key_events":[],"mouse_events":[8100.29999999702,14696.199999999255,17231.599999997765,20752.199999999255,23309.199999999255,23988.599999997765],"honeypot":0,"survey":"mace","page":5,"trial_type":"survey-mace","trial_index":13,"time_elapsed":510758,"internal_node_id":"0.0-13.0","task_version":"prescreen-v0.3","browser_interactions":0},{"responses":{"01":"No","02":"Yes","02_ages_7":"7","02_ages_8":"8","02_ages_9":"9","02_ages_10":"10","02_ages_11":"11","02_ages_12":"12","02_ages_13":"13","02_ages_14":"14","03":"No","04":"No","05":"No"},"rt":39300.199999999255,"item_order":[0,1,2,3,4],"radio_events":[12539.60000000149,14791.699999999255,32157.800000000745,37415.39999999851,38502.10000000149],"checkbox_events":[19488.5,20415.300000000745,20957.89999999851,21861.199999999255,22524.199999999255,23259.10000000149,23961.89999999851,24705.800000000745],"key_events":[],"mouse_events":[12539.60000000149,13977.5,14791.699999999255,19488.5,20415.300000000745,20957.89999999851,21861.199999999255,22524.199999999255,23259.10000000149,23961.89999999851,24705.800000000745,32157.800000000745,37415.39999999851,38502.10000000149,39294.199999999255],"honeypot":0,"survey":"mace","page":6,"trial_type":"survey-mace","trial_index":14,"time_elapsed":550066,"internal_node_id":"0.0-14.0","task_version":"prescreen-v0.3","browser_interactions":0},{"responses":{"01":"No","02":"No","03":"No","04":"No","05":"No","06":"No","07":"No"},"rt":15502.5,"item_order":[0,1,2,3,4,5,6],"radio_events":[2733.39999999851,4579.89999999851,7409.39999999851,8376.199999999255,11116.699999999255,12938.89999999851,14705.099999997765],"checkbox_events":[],"key_events":[],"mouse_events":[2733.39999999851,4579.89999999851,6450,7409.39999999851,8376.199999999255,11116.699999999255,12938.89999999851,14705.099999997765,15495.89999999851],"honeypot":0,"survey":"mace","page":7,"trial_type":"survey-mace","trial_index":15,"time_elapsed":565578,"internal_node_id":"0.0-15.0","task_version":"prescreen-v0.3","browser_interactions":0},{"responses":{"01":"No","02":"No","03":"No","04":"No"},"rt":35503,"item_order":[0,1,2,3],"radio_events":[10445.599999997765,21757.300000000745,24958.300000000745,31880,34844.5],"checkbox_events":[],"key_events":[],"mouse_events":[10445.599999997765,21757.300000000745,24958.300000000745,31880,34844.5,35499.699999999255],"honeypot":0,"survey":"mace","page":8,"trial_type":"survey-mace","trial_index":16,"time_elapsed":601089,"internal_node_id":"0.0-16.0","task_version":"prescreen-v0.3","browser_interactions":0},{"responses":{"01":"Yes","01_ages_1":"1","01_ages_2":"2","01_ages_3":"3","01_ages_4":"4","01_ages_5":"5","01_ages_6":"6","01_ages_7":"7","01_ages_8":"8","01_ages_9":"9","01_ages_10":"10","01_ages_11":"11","01_ages_12":"12","01_ages_13":"13","01_ages_14":"14","01_ages_15":"15","01_ages_16":"16","01_ages_17":"17","01_ages_18":"18","02":"Yes","02_ages_1":"1","02_ages_2":"2","02_ages_3":"3","02_ages_4":"4","02_ages_5":"5","02_ages_6":"6","02_ages_7":"7","02_ages_8":"8","02_ages_9":"9","02_ages_10":"10","02_ages_11":"11","02_ages_12":"12","02_ages_13":"13","02_ages_14":"14","02_ages_15":"15","02_ages_16":"16","02_ages_17":"17","02_ages_18":"18","03":"Yes","03_ages_1":"1","03_ages_2":"2","03_ages_3":"3","03_ages_4":"4","03_ages_5":"5","03_ages_6":"6","03_ages_7":"7","03_ages_8":"8","03_ages_9":"9","03_ages_10":"10","03_ages_11":"11","03_ages_12":"12","03_ages_13":"13","03_ages_14":"14","03_ages_15":"15","03_ages_16":"16","03_ages_17":"17","03_ages_18":"18","04":"Yes","04_ages_1":"1","04_ages_2":"2","04_ages_3":"3","04_ages_4":"4","04_ages_5":"5","04_ages_6":"6","04_ages_7":"7","04_ages_8":"8","04_ages_9":"9","04_ages_10":"10","04_ages_11":"11","04_ages_12":"12","04_ages_13":"13","04_ages_14":"14","04_ages_15":"15","04_ages_16":"16","04_ages_17":"17","04_ages_18":"18"},"rt":71924.60000000149,"item_order":[0,1,2,3],"radio_events":[6267.800000000745,23317.400000002235,39999.800000000745,45033.20000000298],"checkbox_events":[8370.10000000149,8904.5,9432.400000002235,10703.10000000149,11222.20000000298,12165.20000000298,13003.400000002235,13579.70000000298,14139.5,14787.10000000149,15338.20000000298,16273.10000000149,17560.300000000745,18247.400000002235,18958.300000000745,19877.400000002235,20772.900000002235,21699.20000000298,25439.300000000745,25991.20000000298,26894,28060.70000000298,28684.5,29371.300000000745,30059,30697.5,31323.800000000745,31969.20000000298,32632.20000000298,33271.60000000149,33926.5,34517.5,35181.10000000149,35932.800000000745,36628,37163.10000000149,46496.5,46990.70000000298,47494.10000000149,48014.20000000298,48565.20000000298,49108.300000000745,49628,50187.400000002235,50746.10000000149,51321.400000002235,52352.10000000149,52975.70000000298,53726.70000000298,54612.5,55245.60000000149,55860.10000000149,56435.300000000745,57218.70000000298,59303.70000000298,59831.300000000745,60454.300000000745,61101.900000002235,62388.5,62899.900000002235,63498.70000000298,64218.10000000149,64953.70000000298,65944.20000000298,66559.30000000075,67533.80000000075,68229.20000000298,68836.60000000149,69387.40000000224,69986.5,70538.40000000224,71081.70000000298],"key_events":[],"mouse_events":[5565.5,6267.800000000745,7649.900000002235,8370.10000000149,8904.5,9432.400000002235,10071.900000002235,10703.10000000149,11222.20000000298,12165.20000000298,13003.400000002235,13579.70000000298,14139.5,14787.10000000149,15338.20000000298,16273.10000000149,16872.5,17560.300000000745,18247.400000002235,18958.300000000745,19877.400000002235,20772.900000002235,21699.20000000298,23317.400000002235,25439.300000000745,25991.20000000298,26894,27534.20000000298,28060.70000000298,28684.5,29371.300000000745,30059,30697.5,31323.800000000745,31969.20000000298,32632.20000000298,33271.60000000149,33926.5,34517.5,35181.10000000149,35932.800000000745,36628,37163.10000000149,39999.800000000745,45033.20000000298,46496.5,46990.70000000298,47494.10000000149,48014.20000000298,48565.20000000298,49108.300000000745,49628,50187.400000002235,50746.10000000149,51321.400000002235,52352.10000000149,52975.70000000298,53726.70000000298,54612.5,55245.60000000149,55860.10000000149,56435.300000000745,57218.70000000298,59303.70000000298,59831.300000000745,60454.300000000745,61101.900000002235,61796.70000000298,62388.5,62899.900000002235,63498.70000000298,64218.10000000149,64953.70000000298,65944.20000000298,66559.30000000075,67533.80000000075,68229.20000000298,68836.60000000149,69387.40000000224,69986.5,70538.40000000224,71081.70000000298,71921.10000000149],"honeypot":0,"survey":"mace","page":9,"trial_type":"survey-mace","trial_index":17,"time_elapsed":673026,"internal_node_id":"0.0-17.0","task_version":"prescreen-v0.3","browser_interactions":0},{"responses":{"01":"No","02":"No","03":"No","04":"No","05":"No","06":"Yes","06_ages_17":"17","07":"Yes","07_ages_1":"1","07_ages_2":"2","07_ages_3":"3","07_ages_4":"4","07_ages_5":"5","07_ages_6":"6","07_ages_7":"7","07_ages_8":"8","07_ages_9":"9","07_ages_10":"10","07_ages_11":"11","07_ages_12":"12","07_ages_13":"13","07_ages_14":"14","07_ages_15":"15","07_ages_16":"16","07_ages_17":"17","07_ages_18":"18","08":"Yes","08_ages_1":"1","08_ages_2":"2","08_ages_3":"3","08_ages_4":"4","08_ages_5":"5","08_ages_6":"6","08_ages_7":"7","08_ages_8":"8","08_ages_9":"9","08_ages_10":"10","08_ages_11":"11","08_ages_12":"12","08_ages_13":"13","08_ages_14":"14","08_ages_15":"15","08_ages_16":"16","08_ages_17":"17","08_ages_18":"18"},"rt":58807.699999999255,"item_order":[0,1,2,3,4,5,6,7],"radio_events":[3153.699999999255,4651.699999999255,6425.79999999702,8095.29999999702,15502.29999999702,17818.39999999851,22884.199999999255,43553.29999999702],"checkbox_events":[19065,27294.89999999851,27797.79999999702,28277.699999999255,29204.5,29843,30362.599999997765,31593.39999999851,32703.89999999851,35036.199999999255,35571.5,36195.199999999255,37058.39999999851,37713.29999999702,38280.099999997765,38927.699999999255,39487.29999999702,40069.79999999702,40549.599999997765,45392.099999997765,45918.599999997765,46909.39999999851,47820.39999999851,48428.099999997765,49386.099999997765,50305.199999999255,51160.39999999851,52167.199999999255,52710.39999999851,53613.79999999702,54204.79999999702,54763.89999999851,55531.199999999255,56178.29999999702,56849.699999999255,57441.29999999702,58008.5],"key_events":[],"mouse_events":[3153.699999999255,4651.699999999255,6425.79999999702,8095.29999999702,15502.29999999702,17818.39999999851,19065,22884.199999999255,27294.89999999851,27797.79999999702,28277.699999999255,29204.5,29843,30362.599999997765,31593.39999999851,32703.89999999851,33287.699999999255,35036.199999999255,35571.5,36195.199999999255,37058.39999999851,37713.29999999702,38280.099999997765,38927.699999999255,39487.29999999702,40069.79999999702,40549.599999997765,42243.199999999255,43553.29999999702,45392.099999997765,45918.599999997765,46909.39999999851,47820.39999999851,48428.099999997765,49386.099999997765,50305.199999999255,51160.39999999851,52167.199999999255,52710.39999999851,53613.79999999702,54204.79999999702,54763.89999999851,55531.199999999255,56178.29999999702,56849.699999999255,57441.29999999702,58008.5,58799.599999997765],"honeypot":0,"survey":"mace","page":10,"trial_type":"survey-mace","trial_index":18,"time_elapsed":731845,"internal_node_id":"0.0-18.0","task_version":"prescreen-v0.3","browser_interactions":0,"instructed":0},{"rt":2789.60000000149,"trial_type":"mental-health-alert","trial_index":19,"time_elapsed":734641,"internal_node_id":"0.0-19.0","task_version":"prescreen-v0.3","interactions":"[]"}]