[{"view_history":[{"page_index":0,"viewing_time":3493.0999999940395},{"page_index":1,"viewing_time":8185.300000011921},{"page_index":2,"viewing_time":4102.199999988079},{"page_index":3,"viewing_time":1367.4000000059605}],"rt":17148.69999998808,"trial_type":"instructions","trial_index":0,"time_elapsed":17161,"internal_node_id":"0.0-0.0","task_version":"prescreen-v0.3"},{"rt":14434.5,"responses":{"age":"20","gender-categorical":"Female","gender-free-response":"","ethnicity":"Not Hispanic or Latino","race":["Asian"],"education":"High school"},"trial_type":"survey-demo","trial_index":1,"time_elapsed":31600,"internal_node_id":"0.0-1.0","task_version":"prescreen-v0.3"},{"responses":{"Q18":"3","Q05":"3","Q19":"3","Q20":"3","Q01":"3","Q16":"3","Q08":"3","Q06":"3","Q15":"3","Q14":"3","Q09":"3","Q17":"3","Q02":"3","Q11":"3","Q03":"3","Q21":"2","Q07":"2","Q12":"3","Q04":"3","Q10":"3","Q13":"3"},"rt":88182.30000001192,"item_order":[17,4,18,19,0,15,7,5,14,13,8,16,1,10,2,20,6,11,3,9,12],"radio_events":[7430.600000023842,9225.90000000596,14090.800000011921,15193.40000000596,17613.80000001192,22987.70000001788,25297.90000000596,30632.100000023842,32900.60000002384,37047.70000001788,38554.5,40619.5,42897.20000001788,45257.20000001788,48316,60096.60000002384,64539.70000001788,69689.5,72325.70000001788,76806.60000002384,81587.70000001788,82905],"key_events":[],"mouse_events":[6021.100000023842,7430.600000023842,9225.90000000596,14090.800000011921,15193.40000000596,17613.80000001192,22987.70000001788,25297.90000000596,27324.100000023842,30632.100000023842,32900.60000002384,37047.70000001788,38554.5,40619.5,42897.20000001788,44281.70000001788,45257.20000001788,45830.40000000596,48316,54468.20000001788,60096.60000002384,64539.70000001788,69689.5,72325.70000001788,76806.60000002384,81587.70000001788,82905,83757.20000001788,88180.20000001788],"straightlining":0.9047619047619048,"zigzagging":0.1,"honeypot":0,"survey":"sns","trial_type":"survey-template","trial_index":2,"time_elapsed":119789,"internal_node_id":"0.0-2.0","task_version":"prescreen-v0.3","browser_interactions":0,"infrequency":0.5},{"responses":{"Q01":"2","Q02":"2","Q04":"2","Q03":"2","Q11":"0","Q08":"0","Q10":"1","Q13":"0","Q07":"0","Q09":"0","Q05":"0","Q12":"0","Q06":"2"},"rt":46345.90000000596,"item_order":[0,1,3,2,10,7,9,12,6,8,4,11,5],"radio_events":[6716.0999999940395,8623.5,9538.09999999404,11318.200000017881,15768.300000011921,18316.70000001788,21898.09999999404,28465.70000001788,31513.30000001192,35011.20000001788,36164,37485.40000000596,40504.5],"key_events":[],"mouse_events":[4430.700000017881,5985.200000017881,6716.0999999940395,7767,8623.5,9538.09999999404,11318.200000017881,15768.300000011921,18316.70000001788,21898.09999999404,22703.5,28465.70000001788,31513.30000001192,35011.20000001788,36164,37485.40000000596,40504.5,46344.80000001192],"straightlining":0.5384615384615384,"zigzagging":0.16666666666666666,"honeypot":0,"survey":"bisbas","trial_type":"survey-template","trial_index":3,"time_elapsed":166140,"internal_node_id":"0.0-3.0","task_version":"prescreen-v0.3","browser_interactions":0,"infrequency":0},{"responses":{"Q01":"0","Q02":"0","Q03":"0"},"rt":12931.899999976158,"radio_events":[3872.5999999940395,6661.799999982119,11512],"key_events":[],"mouse_events":[3872.5999999940395,6661.799999982119,11512,12931.09999999404],"survey":"map","page":1,"trial_type":"survey-map","trial_index":4,"time_elapsed":179077,"internal_node_id":"0.0-4.0","task_version":"prescreen-v0.3","browser_interactions":0},{"responses":{"Q04":"1","Q05":"1","Q06":"1"},"rt":10307.700000017881,"radio_events":[2671.5,3684.5,4679.200000017881,6584.200000017881,8167.800000011921],"key_events":[],"mouse_events":[2671.5,3684.5,4679.200000017881,6584.200000017881,8167.800000011921,10306.90000000596],"survey":"map","page":2,"trial_type":"survey-map","trial_index":5,"time_elapsed":189392,"internal_node_id":"0.0-5.0","task_version":"prescreen-v0.3","browser_interactions":0},{"responses":{"Q07":"0","Q08":"0","Q09":"0"},"rt":8007.300000011921,"radio_events":[3552.0999999940395,5207.200000017881,6920],"key_events":[],"mouse_events":[2952.0999999940395,3552.0999999940395,5207.200000017881,6920,8006.5],"survey":"map","page":3,"trial_type":"survey-map","trial_index":6,"time_elapsed":197406,"internal_node_id":"0.0-6.0","task_version":"prescreen-v0.3","browser_interactions":0},{"responses":{"Q10":"0","Q11":"0","Q12":"1","Q13":"1","Q16":"0","Q14":"1","Q15":"1"},"rt":32511.899999976158,"radio_events":[2443.7999999821186,4670.799999982119,7795.799999982119,13047.5,16013.399999976158,29771.79999998212,31701],"key_events":[],"mouse_events":[2443.7999999821186,4670.799999982119,7795.799999982119,13047.5,16013.399999976158,29771.79999998212,31701,32510.69999998808],"survey":"map","page":4,"trial_type":"survey-map","trial_index":7,"time_elapsed":229924,"internal_node_id":"0.0-7.0","task_version":"prescreen-v0.3","browser_interactions":0,"infrequency":0},{"view_history":[{"page_index":0,"viewing_time":2140},{"page_index":1,"viewing_time":3942.5}],"rt":6083,"trial_type":"instructions","trial_index":8,"time_elapsed":236011,"internal_node_id":"0.0-8.0","task_version":"prescreen-v0.3"},{"responses":{"01":"Yes","01_ages_10":"10","01_ages_11":"11","01_ages_12":"12","01_ages_13":"13","01_ages_14":"14","01_ages_15":"15","01_ages_16":"16","01_ages_17":"17","01_ages_18":"18","02":"Yes","02_ages_10":"10","02_ages_11":"11","02_ages_12":"12","02_ages_13":"13","02_ages_14":"14","02_ages_15":"15","02_ages_16":"16","02_ages_17":"17","02_ages_18":"18","03":"Yes","03_ages_10":"10","03_ages_11":"11","03_ages_12":"12","03_ages_13":"13","03_ages_14":"14","04":"No","05":"No","06":"No"},"rt":52207.5,"item_order":[0,1,2,3,4,5],"radio_events":[4467.199999988079,24588.79999998212,35162.5,41971.29999998212,43991.79999998212,45807.5],"checkbox_events":[10570,11692.299999982119,12401.799999982119,13663.199999988079,14222.09999999404,15050.199999988079,19713.29999998212,22314.40000000596,22717.09999999404,27348.5,27832.90000000596,28225.5,28867.69999998808,29498.5,29784,30244.79999998212,30816.40000000596,32432.69999998808,37756.29999998212,38642.59999999404,39037.5,39491.5,40071.19999998808],"key_events":[],"mouse_events":[0.19999998807907104,4467.199999988079,10570,11692.299999982119,12401.799999982119,13663.199999988079,14222.09999999404,15050.199999988079,19713.29999998212,21269.69999998808,22314.40000000596,22717.09999999404,24588.79999998212,27348.5,27832.90000000596,28225.5,28867.69999998808,29184.5,29498.5,29784,30244.79999998212,30816.40000000596,31743.69999998808,32432.69999998808,34317.59999999404,35162.5,35664.29999998212,37756.29999998212,38642.59999999404,39037.5,39491.5,40071.19999998808,41971.29999998212,43991.79999998212,45807.5,52203.59999999404],"honeypot":0,"survey":"mace","page":1,"trial_type":"survey-mace","trial_index":9,"time_elapsed":288226,"internal_node_id":"0.0-9.0","task_version":"prescreen-v0.3","browser_interactions":0},{"responses":{"01":"No","02":"No","03":"No","04":"No","05":"No","06":"No","07":"No","08":"No"},"rt":14204.59999999404,"item_order":[0,1,2,3,4,5,6,7],"radio_events":[2216,3684.5,5094.200000017881,7906.200000017881,9066.09999999404,12034.300000011921,12961.200000017881,13698],"checkbox_events":[],"key_events":[],"mouse_events":[2216,3684.5,5094.200000017881,5951.0999999940395,6828.5999999940395,7588.800000011921,7906.200000017881,8446.90000000596,9066.09999999404,9806.90000000596,12034.300000011921,12536.90000000596,12961.200000017881,13698,14201.700000017881],"honeypot":0,"survey":"mace","page":2,"trial_type":"survey-mace","trial_index":10,"time_elapsed":302436,"internal_node_id":"0.0-10.0","task_version":"prescreen-v0.3","browser_interactions":0},{"responses":{"01":"No","02":"No","03":"No","04":"No"},"rt":10796.90000000596,"item_order":[0,1,2,3],"radio_events":[7058.4000000059605,8466.800000011921,9648.90000000596,10411.200000017881],"checkbox_events":[],"key_events":[],"mouse_events":[7058.4000000059605,8466.800000011921,9648.90000000596,10411.200000017881,10795.300000011921],"honeypot":0,"survey":"mace","page":3,"trial_type":"survey-mace","trial_index":11,"time_elapsed":313237,"internal_node_id":"0.0-11.0","task_version":"prescreen-v0.3","browser_interactions":2},{"responses":{"01":"No","02":"No"},"rt":3444.5,"item_order":[0,1],"radio_events":[1739.0999999940395,3118.800000011921],"checkbox_events":[],"key_events":[],"mouse_events":[1739.0999999940395,2174.2000000178814,3118.800000011921,3443.5999999940395],"honeypot":0,"survey":"mace","page":4,"trial_type":"survey-mace","trial_index":12,"time_elapsed":316686,"internal_node_id":"0.0-12.0","task_version":"prescreen-v0.3","browser_interactions":0},{"responses":{"01":"Yes","01_ages_9":"9","01_ages_10":"10","01_ages_11":"11","01_ages_12":"12","01_ages_13":"13","01_ages_14":"14","02":"No","03":"No","04":"No","05":"No"},"rt":30823.19999998808,"item_order":[0,1,2,3,4],"radio_events":[4272.399999976158,14721.699999988079,21335.29999998212,27596.19999998808,28501],"checkbox_events":[7261.199999988079,7694.5999999940395,8126.199999988079,8650,8985.299999982119,10149.299999982119],"key_events":[],"mouse_events":[4272.399999976158,7261.199999988079,7694.5999999940395,8126.199999988079,8650,8985.299999982119,9545.399999976158,10149.299999982119,14721.699999988079,19047.899999976158,20309.59999999404,21335.29999998212,27596.19999998808,28501,30819.399999976158],"honeypot":0,"survey":"mace","page":5,"trial_type":"survey-mace","trial_index":13,"time_elapsed":347513,"internal_node_id":"0.0-13.0","task_version":"prescreen-v0.3","browser_interactions":0},{"responses":{"01":"Yes","01_ages_9":"9","01_ages_10":"10","01_ages_11":"11","01_ages_12":"12","01_ages_13":"13","02":"Yes","02_ages_9":"9","02_ages_10":"10","02_ages_11":"11","02_ages_12":"12","02_ages_13":"13","03":"Yes","03_ages_9":"9","03_ages_10":"10","03_ages_11":"11","03_ages_12":"12","03_ages_13":"13","04":"Yes","04_ages_9":"9","04_ages_10":"10","04_ages_11":"11","04_ages_12":"12","04_ages_13":"13","05":"No"},"rt":74776.90000000596,"item_order":[0,1,2,3,4],"radio_events":[31714.90000000596,33468.90000000596,34513.40000000596,39591.30000001192,54735.30000001192,62552.40000000596,68256.70000001788,73561.40000000596],"checkbox_events":[42941.30000001192,44832.90000000596,45306.30000001192,51475.60000002384,53121.10000002384,55848.10000002384,56333.5,56688.40000000596,57023,57436.10000002384,63321.80000001192,64159.10000002384,64662.5,65806.30000001192,66236.5,69046.10000002384,69539.60000002384,70062.40000000596,71165.30000001192,71560.10000002384],"key_events":[],"mouse_events":[30027.20000001788,31714.90000000596,33468.90000000596,34513.40000000596,39591.30000001192,42941.30000001192,44832.90000000596,45306.30000001192,51475.60000002384,53121.10000002384,54735.30000001192,55848.10000002384,56333.5,56688.40000000596,57023,57436.10000002384,62552.40000000596,63321.80000001192,63745.80000001192,64159.10000002384,64662.5,65015.30000001192,65806.30000001192,66236.5,68256.70000001788,69046.10000002384,69539.60000002384,70062.40000000596,70636.5,71165.30000001192,71560.10000002384,73561.40000000596,74773.40000000596],"honeypot":0,"survey":"mace","page":6,"trial_type":"survey-mace","trial_index":14,"time_elapsed":422295,"internal_node_id":"0.0-14.0","task_version":"prescreen-v0.3","browser_interactions":2},{"responses":{"01":"No","02":"No","03":"No","04":"No","05":"No","06":"No","07":"No"},"rt":10434.09999999404,"item_order":[0,1,2,3,4,5,6],"radio_events":[2366.4000000059605,4425.299999982119,6121.5,6711.4000000059605,7500.0999999940395,9364,9876.59999999404],"checkbox_events":[],"key_events":[],"mouse_events":[2366.4000000059605,4425.299999982119,4937.4000000059605,6121.5,6711.4000000059605,7500.0999999940395,9364,9876.59999999404,10429.09999999404],"honeypot":0,"survey":"mace","page":7,"trial_type":"survey-mace","trial_index":15,"time_elapsed":432734,"internal_node_id":"0.0-15.0","task_version":"prescreen-v0.3","browser_interactions":0},{"responses":{"01":"Yes","01_ages_9":"9","01_ages_10":"10","01_ages_11":"11","01_ages_12":"12","01_ages_13":"13","01_ages_14":"14","01_ages_15":"15","01_ages_16":"16","01_ages_17":"17","01_ages_18":"18","02":"Yes","02_ages_9":"9","02_ages_10":"10","02_ages_11":"11","02_ages_12":"12","02_ages_13":"13","02_ages_14":"14","02_ages_15":"15","02_ages_16":"16","02_ages_17":"17","02_ages_18":"18","03":"Yes","03_ages_9":"9","03_ages_10":"10","03_ages_11":"11","03_ages_12":"12","03_ages_13":"13","03_ages_14":"14","03_ages_15":"15","03_ages_16":"16","03_ages_17":"17","03_ages_18":"18","04":"Yes","04_ages_9":"9","04_ages_10":"10","04_ages_11":"11","04_ages_12":"12","04_ages_13":"13","04_ages_14":"14","04_ages_15":"15","04_ages_16":"16","04_ages_17":"17","04_ages_18":"18"},"rt":60961.5,"item_order":[0,1,2,3],"radio_events":[13325.699999988079,19070.69999998808,20469,44213.90000000596,52137.79999998212],"checkbox_events":[23545,23961.19999998808,24748.19999998808,26542.79999998212,26977.59999999404,29244.5,30583.29999998212,30998.69999998808,31460.19999998808,31954.79999998212,32763.90000000596,33215.90000000596,33867.29999998212,34833.19999998808,35366.79999998212,36152.79999998212,37246.90000000596,37781.69999998808,38133.59999999404,38688.79999998212,39022,39356.79999998212,40124.90000000596,40509.29999998212,41089.29999998212,41691.40000000596,46225.5,46620.09999999404,47398.69999998808,47773,48274.69999998808,48845.69999998808,49369.29999998212,49724.5,50059.59999999404,50562.29999998212,52916.19999998808,53932.69999998808,54248.5,54573,54859.5,55596.90000000596,56032.29999998212,56584.40000000596,57085.19999998808,57461.29999998212],"key_events":[],"mouse_events":[13325.699999988079,19070.69999998808,19821.19999998808,20469,23545,23961.19999998808,24748.19999998808,26542.79999998212,26977.59999999404,27706.29999998212,28288.19999998808,28987.79999998212,29244.5,30052.29999998212,30583.29999998212,30998.69999998808,31460.19999998808,31954.79999998212,32763.90000000596,33215.90000000596,33867.29999998212,34833.19999998808,35366.79999998212,36152.79999998212,37246.90000000596,37781.69999998808,38133.59999999404,38688.79999998212,39022,39356.79999998212,40124.90000000596,40509.29999998212,41089.29999998212,41691.40000000596,44213.90000000596,46225.5,46620.09999999404,46955.69999998808,47398.69999998808,47773,48274.69999998808,48845.69999998808,49369.29999998212,49724.5,50059.59999999404,50562.29999998212,52137.79999998212,52916.19999998808,53341.5,53932.69999998808,54248.5,54573,54859.5,55243.5,55596.90000000596,56032.29999998212,56584.40000000596,57085.19999998808,57461.29999998212,60958.79999998212],"honeypot":0,"survey":"mace","page":8,"trial_type":"survey-mace","trial_index":16,"time_elapsed":493700,"internal_node_id":"0.0-16.0","task_version":"prescreen-v0.3","browser_interactions":2},{"responses":{"01":"No","02":"No","03":"Yes","03_ages_1":"1","03_ages_2":"2","03_ages_3":"3","03_ages_4":"4","03_ages_5":"5","03_ages_6":"6","03_ages_7":"7","03_ages_8":"8","03_ages_14":"14","03_ages_15":"15","03_ages_16":"16","03_ages_17":"17","03_ages_18":"18","04":"Yes","04_ages_1":"1","04_ages_2":"2","04_ages_3":"3","04_ages_4":"4","04_ages_5":"5","04_ages_6":"6","04_ages_7":"7","04_ages_8":"8","04_ages_14":"14","04_ages_15":"15","04_ages_16":"16","04_ages_17":"17","04_ages_18":"18"},"rt":63355.5,"item_order":[0,1,2,3],"radio_events":[2132.4000000059605,2997.5999999940395,5075.699999988079,6563.9000000059605,7569.199999988079,30312.59999999404],"checkbox_events":[16232.300000011921,16587,17533.09999999404,17848.90000000596,18832.5,19504.30000001192,20371.19999998808,20863.69999998808,21416.80000001192,22846.19999998808,23120.5,24283.90000000596,24638.09999999404,25180.80000001192,25564.30000001192,26628.90000000596,26995.5,27367.59999999404,33517.09999999404,34905.90000000596,41942.5,42374.19999998808,43658.19999998808,44228.5,45883.69999998808,46593.80000001192,47982.90000000596,51520.19999998808,52161,53166.90000000596,53511.80000001192,54198.69999998808,55766.80000001192,56201.40000000596,56731.19999998808,58397.90000000596,58900.80000001192,59709.5,60762.69999998808,61216.40000000596],"key_events":[],"mouse_events":[2132.4000000059605,2997.5999999940395,5075.699999988079,6563.9000000059605,7569.199999988079,16232.300000011921,16587,16972.09999999404,17533.09999999404,17848.90000000596,18220.90000000596,18832.5,19504.30000001192,19799.19999998808,20371.19999998808,20863.69999998808,21130.59999999404,21416.80000001192,21751.09999999404,22430.30000001192,22846.19999998808,23120.5,23997.69999998808,24283.90000000596,24638.09999999404,25180.80000001192,25564.30000001192,26145.30000001192,26628.90000000596,26995.5,27367.59999999404,30312.59999999404,33517.09999999404,34483.69999998808,34905.90000000596,41942.5,42374.19999998808,43658.19999998808,44228.5,45617.59999999404,45883.69999998808,46593.80000001192,47982.90000000596,50997.40000000596,51520.19999998808,52161,52476.30000001192,53166.90000000596,53511.80000001192,54198.69999998808,54938.90000000596,55766.80000001192,56201.40000000596,56731.19999998808,58397.90000000596,58900.80000001192,59709.5,60122.30000001192,60762.69999998808,61216.40000000596,63352.69999998808],"honeypot":0,"survey":"mace","page":9,"trial_type":"survey-mace","trial_index":17,"time_elapsed":557061,"internal_node_id":"0.0-17.0","task_version":"prescreen-v0.3","browser_interactions":0},{"responses":{"01":"Yes","01_ages_9":"9","01_ages_10":"10","01_ages_11":"11","01_ages_12":"12","01_ages_13":"13","02":"Yes","02_ages_9":"9","02_ages_10":"10","02_ages_11":"11","02_ages_12":"12","02_ages_13":"13","03":"Yes","03_ages_9":"9","03_ages_10":"10","03_ages_11":"11","03_ages_12":"12","03_ages_13":"13","03_ages_14":"14","03_ages_15":"15","03_ages_16":"16","03_ages_17":"17","03_ages_18":"18","04":"Yes","04_ages_9":"9","04_ages_10":"10","04_ages_11":"11","04_ages_12":"12","04_ages_13":"13","05":"No","06":"Yes","06_ages_17":"17","07":"No","08":"No"},"rt":38992.90000000596,"item_order":[0,1,2,3,4,5,6,7],"radio_events":[3881,5555.4000000059605,5849.699999988079,7645.0999999940395,19930.09999999404,27300.69999998808,31467.69999998808,32817.80000001192,37173.80000001192,38493.09999999404],"checkbox_events":[10128.5,10650.40000000596,10995.300000011921,11418.300000011921,12433.09999999404,13586.09999999404,14039.90000000596,14631,15044.300000011921,15754,20669.90000000596,21015.69999998808,21527.5,22048.40000000596,22512.80000001192,23063.5,23627.59999999404,24068.5,24749.5,25233.80000001192,28020.90000000596,28395.5,28779.69999998808,29114.40000000596,29487.30000001192,34522.59999999404],"key_events":[],"mouse_events":[3881,4667.9000000059605,5100.800000011921,5555.4000000059605,5849.699999988079,7645.0999999940395,10128.5,10650.40000000596,10995.300000011921,11418.300000011921,11940.699999988079,12433.09999999404,13586.09999999404,14039.90000000596,14631,15044.300000011921,15754,19930.09999999404,20669.90000000596,21015.69999998808,21527.5,22048.40000000596,22512.80000001192,23063.5,23627.59999999404,24068.5,24749.5,25233.80000001192,27300.69999998808,28020.90000000596,28395.5,28779.69999998808,29114.40000000596,29487.30000001192,31467.69999998808,32817.80000001192,34522.59999999404,37173.80000001192,38493.09999999404,38988],"honeypot":0,"survey":"mace","page":10,"trial_type":"survey-mace","trial_index":18,"time_elapsed":596063,"internal_node_id":"0.0-18.0","task_version":"prescreen-v0.3","browser_interactions":0,"instructed":0},{"rt":4631.5,"trial_type":"mental-health-alert","trial_index":19,"time_elapsed":600699,"internal_node_id":"0.0-19.0","task_version":"prescreen-v0.3","interactions":"[{\"event\":\"blur\",\"trial\":11,\"time\":303319},{\"event\":\"focus\",\"trial\":11,\"time\":305317},{\"event\":\"blur\",\"trial\":14,\"time\":348675},{\"event\":\"focus\",\"trial\":14,\"time\":372632},{\"event\":\"blur\",\"trial\":16,\"time\":433659},{\"event\":\"focus\",\"trial\":16,\"time\":439782}]"}]