[{"view_history":[{"page_index":0,"viewing_time":4104.200000047684},{"page_index":1,"viewing_time":4927.700000047684},{"page_index":2,"viewing_time":6352.200000047684},{"page_index":3,"viewing_time":967.8999998569489}],"rt":16353.200000047684,"trial_type":"instructions","trial_index":0,"time_elapsed":16363,"internal_node_id":"0.0-0.0","task_version":"prescreen-v0.3"},{"rt":35898.59999990463,"responses":{"age":"22","gender-categorical":"Male","gender-free-response":"","ethnicity":"Not Hispanic or Latino","race":["Black or African American"],"education":"High school"},"trial_type":"survey-demo","trial_index":1,"time_elapsed":52266,"internal_node_id":"0.0-1.0","task_version":"prescreen-v0.3"},{"responses":{"Q18":"3","Q03":"2","Q02":"2","Q15":"2","Q14":"2","Q17":"2","Q13":"2","Q10":"3","Q09":"3","Q04":"2","Q08":"3","Q11":"2","Q12":"2","Q20":"0","Q16":"0","Q21":"2","Q05":"3","Q19":"2","Q06":"0","Q07":"2","Q01":"2"},"rt":144100.39999985695,"item_order":[17,2,1,14,13,16,12,9,8,3,7,10,11,19,15,20,4,18,5,6,0],"radio_events":[9026.099999904633,12858.199999809265,18185.89999985695,24346,29609.89999985695,33874.09999990463,39658.09999990463,44218.199999809265,50402.199999809265,55089.89999985695,60906,63554,68970.19999980927,71906,75834,77994,81282,90066.69999980927,91530,101498.5,113578.09999990463,115433.79999995232,122209.79999995232,129425.89999985695,137082.39999985695,141145.89999985695,143466.19999980927],"key_events":[],"mouse_events":[9026.099999904633,12858.199999809265,18185.89999985695,24346,29609.89999985695,33874.09999990463,39658.09999990463,44218.199999809265,50402.199999809265,55089.89999985695,60906,63554,67650.19999980927,68545.79999995232,68970.19999980927,71906,75361.89999985695,75834,77650.29999995232,77994,81282,90066.69999980927,91530,101498.5,113578.09999990463,115433.79999995232,122209.79999995232,129425.89999985695,137082.39999985695,141145.89999985695,143466.19999980927,144098.29999995232],"straightlining":0.6190476190476191,"zigzagging":0.35,"honeypot":0,"survey":"sns","trial_type":"survey-template","trial_index":2,"time_elapsed":196373,"internal_node_id":"0.0-2.0","task_version":"prescreen-v0.3","browser_interactions":0,"infrequency":0.5},{"responses":{"Q12":"1","Q05":"2","Q11":"1","Q08":"1","Q13":"0","Q03":"2","Q04":"3","Q10":"2","Q01":"3","Q07":"1","Q09":"1","Q06":"3","Q02":"1"},"rt":79370.09999990463,"item_order":[11,4,10,7,12,2,3,9,0,6,8,5,1],"radio_events":[8704.699999809265,10320.799999952316,11472.799999952316,14448.699999809265,20017.39999985695,20953.099999904633,23601.099999904633,31521,34593,44545.09999990463,51680.699999809265,56953.199999809265,59113,64881.09999990463,69289,72768.69999980927,75304.89999985695,78560.69999980927],"key_events":[],"mouse_events":[7601.199999809265,8704.699999809265,10320.799999952316,11472.799999952316,14448.699999809265,19448.89999985695,20017.39999985695,20953.099999904633,23601.099999904633,31521,34593,44049.299999952316,44545.09999990463,51680.699999809265,56953.199999809265,59113,64881.09999990463,69289,72768.69999980927,75304.89999985695,78560.69999980927,79369],"straightlining":0.46153846153846156,"zigzagging":0.5,"honeypot":0,"survey":"bisbas","trial_type":"survey-template","trial_index":3,"time_elapsed":275747,"internal_node_id":"0.0-3.0","task_version":"prescreen-v0.3","browser_interactions":0,"infrequency":0},{"responses":{"Q01":"3","Q02":"1","Q03":"2"},"rt":24603.5,"radio_events":[7402.700000047684,16506.700000047684,23970.700000047684],"key_events":[],"mouse_events":[7402.700000047684,16506.700000047684,23970.700000047684,24602.700000047684],"survey":"map","page":1,"trial_type":"survey-map","trial_index":4,"time_elapsed":300354,"internal_node_id":"0.0-4.0","task_version":"prescreen-v0.3","browser_interactions":0},{"responses":{"Q04":"2","Q05":"2","Q06":"3"},"rt":27517.5,"radio_events":[6972.200000047684,9100.099999904633,10820.799999952316,20124.200000047684,26740.700000047684],"key_events":[],"mouse_events":[6636.200000047684,6972.200000047684,9100.099999904633,10820.799999952316,20124.200000047684,26740.700000047684,27516.799999952316],"survey":"map","page":2,"trial_type":"survey-map","trial_index":5,"time_elapsed":327875,"internal_node_id":"0.0-5.0","task_version":"prescreen-v0.3","browser_interactions":0},{"responses":{"Q07":"2","Q08":"4","Q09":"1"},"rt":29404.900000095367,"radio_events":[16788.200000047684,22796.200000047684,26724.200000047684],"key_events":[],"mouse_events":[16788.200000047684,22796.200000047684,26724.200000047684,29404.200000047684],"survey":"map","page":3,"trial_type":"survey-map","trial_index":6,"time_elapsed":357282,"internal_node_id":"0.0-6.0","task_version":"prescreen-v0.3","browser_interactions":0},{"responses":{"Q10":"1","Q11":"2","Q12":"2","Q13":"3","Q16":"0","Q14":"2","Q15":"2"},"rt":60373.39999985695,"radio_events":[7156.700000047684,13044.399999856949,24773.299999952316,33780.39999985695,38844.59999990463,47092.59999990463,54444.39999985695,59548.89999985695],"key_events":[],"mouse_events":[7156.700000047684,13044.399999856949,24773.299999952316,33780.39999985695,38844.59999990463,47092.59999990463,54444.39999985695,59548.89999985695,60372.200000047684],"survey":"map","page":4,"trial_type":"survey-map","trial_index":7,"time_elapsed":417659,"internal_node_id":"0.0-7.0","task_version":"prescreen-v0.3","browser_interactions":0,"infrequency":0},{"view_history":[{"page_index":0,"viewing_time":2556.300000190735},{"page_index":1,"viewing_time":5648.099999904633}],"rt":8205.5,"trial_type":"instructions","trial_index":8,"time_elapsed":425865,"internal_node_id":"0.0-8.0","task_version":"prescreen-v0.3"},{"responses":{"01":"Yes","01_ages_10":"10","01_ages_11":"11","01_ages_12":"12","01_ages_13":"13","01_ages_14":"14","01_ages_15":"15","01_ages_16":"16","01_ages_17":"17","01_ages_18":"18","02":"Yes","02_ages_12":"12","02_ages_13":"13","02_ages_14":"14","02_ages_15":"15","02_ages_16":"16","02_ages_17":"17","02_ages_18":"18","03":"Yes","03_ages_5":"5","03_ages_6":"6","03_ages_7":"7","03_ages_8":"8","03_ages_9":"9","03_ages_10":"10","03_ages_11":"11","03_ages_12":"12","03_ages_13":"13","03_ages_14":"14","04":"No","05":"No","06":"Yes","06_ages_5":"5","06_ages_6":"6","06_ages_7":"7","06_ages_8":"8","06_ages_9":"9","06_ages_10":"10","06_ages_11":"11","06_ages_12":"12","06_ages_13":"13","06_ages_14":"14","06_ages_15":"15"},"rt":85612.10000014305,"item_order":[0,1,2,3,4,5],"radio_events":[12993.799999952316,33649.60000014305,37785.40000009537,47049.299999952316,70209.5,73857.40000009537,77977.29999995232],"checkbox_events":[18937.799999952316,19281.60000014305,20001.60000014305,20393.5,22977.299999952316,23401.700000047684,23809.400000095367,24289.799999952316,25025.5,39769.5,40137.60000014305,40457.200000047684,40809.40000009537,41681.5,42097.5,42489.40000009537,50105.299999952316,50417.5,51241.5,52122.10000014305,52625.40000009537,53065.299999952316,53473.299999952316,54361.10000014305,55073.700000047684,55697.200000047684,56369.200000047684,56769.799999952316,57233.200000047684,58577.299999952316,59465.700000047684,61793.10000014305,79833.60000014305,80177.70000004768,80521.60000014305,80929.29999995232,81273.29999995232,81633.5,82641.29999995232,83009,84065.79999995232,84481.29999995232,84977.29999995232],"key_events":[],"mouse_events":[0.10000014305114746,12993.799999952316,18937.799999952316,19281.60000014305,20001.60000014305,20393.5,22546.10000014305,22977.299999952316,23401.700000047684,23809.400000095367,24289.799999952316,25025.5,33649.60000014305,37785.40000009537,39769.5,40137.60000014305,40457.200000047684,40809.40000009537,41169.5,41681.5,42097.5,42489.40000009537,47049.299999952316,50105.299999952316,50417.5,50785.40000009537,51241.5,51737.5,52122.10000014305,52625.40000009537,53065.299999952316,53473.299999952316,53825.40000009537,54361.10000014305,55073.700000047684,55697.200000047684,56369.200000047684,56769.799999952316,57233.200000047684,58577.299999952316,59465.700000047684,61793.10000014305,70209.5,73857.40000009537,77977.29999995232,79833.60000014305,80177.70000004768,80521.60000014305,80929.29999995232,81273.29999995232,81633.5,82009.29999995232,82641.29999995232,83009,83521.40000009537,84065.79999995232,84481.29999995232,84977.29999995232,85609.5],"honeypot":0,"survey":"mace","page":1,"trial_type":"survey-mace","trial_index":9,"time_elapsed":511486,"internal_node_id":"0.0-9.0","task_version":"prescreen-v0.3","browser_interactions":0},{"responses":{"01":"Yes","01_ages_5":"5","01_ages_6":"6","01_ages_7":"7","01_ages_8":"8","01_ages_9":"9","01_ages_10":"10","02":"No","03":"Yes","03_ages_4":"4","03_ages_5":"5","03_ages_6":"6","03_ages_7":"7","03_ages_8":"8","03_ages_9":"9","04":"No","05":"Yes","05_ages_5":"5","05_ages_6":"6","05_ages_7":"7","05_ages_8":"8","05_ages_9":"9","06":"No","07":"No","08":"No"},"rt":50948.200000047684,"item_order":[0,1,2,3,4,5,6,7],"radio_events":[4368,17599.900000095367,20256,30240.200000047684,33616.200000047684,44784.200000047684,47224,50368.300000190735],"checkbox_events":[7248.300000190735,8096.200000047684,8631.800000190735,9047.800000190735,9568.300000190735,9887.800000190735,22360.300000190735,22752.200000047684,23103.900000095367,23695.900000095367,24032,24408.10000014305,35008.40000009537,35583.90000009537,35928.200000047684,37231.90000009537,37632,37983.90000009537,38544.40000009537,39520.10000014305,40784],"key_events":[],"mouse_events":[3447.800000190735,4368,6168.5,6448.800000190735,7248.300000190735,7648.300000190735,8096.200000047684,8631.800000190735,9047.800000190735,9568.300000190735,9887.800000190735,17599.900000095367,20256,22360.300000190735,22752.200000047684,23103.900000095367,23695.900000095367,24032,24408.10000014305,30240.200000047684,33616.200000047684,35008.40000009537,35583.90000009537,35928.200000047684,36520.200000047684,37231.90000009537,37632,37983.90000009537,38544.40000009537,39520.10000014305,39864.300000190735,40784,44784.200000047684,47224,50368.300000190735,50944.5],"honeypot":0,"survey":"mace","page":2,"trial_type":"survey-mace","trial_index":10,"time_elapsed":562439,"internal_node_id":"0.0-10.0","task_version":"prescreen-v0.3","browser_interactions":0},{"responses":{"01":"Yes","01_ages_5":"5","01_ages_6":"6","01_ages_7":"7","01_ages_8":"8","01_ages_9":"9","01_ages_10":"10","01_ages_11":"11","02":"No","03":"No","04":"No"},"rt":23105.5,"item_order":[0,1,2,3],"radio_events":[7511.199999809265,19855.199999809265,21527.199999809265,22239.099999904633],"checkbox_events":[12655.299999952316,13015.099999904633,13400.199999809265,13775.099999904633,14279.199999809265,14663.099999904633,15327],"key_events":[],"mouse_events":[7511.199999809265,12271.199999809265,12655.299999952316,13015.099999904633,13400.199999809265,13775.099999904633,14279.199999809265,14663.099999904633,15327,19855.199999809265,21527.199999809265,22239.099999904633,23103.299999952316],"honeypot":0,"survey":"mace","page":3,"trial_type":"survey-mace","trial_index":11,"time_elapsed":585548,"internal_node_id":"0.0-11.0","task_version":"prescreen-v0.3","browser_interactions":0},{"responses":{"01":"Yes","01_ages_7":"7","02":"No"},"rt":22292.299999952316,"item_order":[0,1],"radio_events":[3962.5,11506.799999952316,20306.39999985695],"checkbox_events":[14586.299999952316],"key_events":[],"mouse_events":[3962.5,11506.799999952316,14586.299999952316,20306.39999985695,22291.200000047684],"honeypot":0,"survey":"mace","page":4,"trial_type":"survey-mace","trial_index":12,"time_elapsed":607843,"internal_node_id":"0.0-12.0","task_version":"prescreen-v0.3","browser_interactions":0},{"responses":{"01":"Yes","01_ages_6":"6","01_ages_7":"7","01_ages_8":"8","01_ages_9":"9","01_ages_10":"10","01_ages_11":"11","01_ages_12":"12","02":"Yes","02_ages_5":"5","02_ages_6":"6","02_ages_7":"7","02_ages_8":"8","02_ages_9":"9","02_ages_10":"10","02_ages_11":"11","02_ages_12":"12","03":"No","04":"Yes","04_ages_5":"5","04_ages_6":"6","04_ages_7":"7","04_ages_8":"8","04_ages_9":"9","04_ages_10":"10","04_ages_11":"11","04_ages_12":"12","05":"Yes","05_ages_5":"5","05_ages_6":"6","05_ages_7":"7","05_ages_8":"8","05_ages_9":"9","05_ages_10":"10","05_ages_11":"11","05_ages_12":"12"},"rt":64804.5,"item_order":[0,1,2,3,4],"radio_events":[13034.5,26146.700000047684,39058.299999952316,43562.90000009537,57234.59999990463],"checkbox_events":[18018.599999904633,18426.5,18818.299999952316,19434.5,20338.599999904633,21498.599999904633,22314.700000047684,28530.700000047684,28938.900000095367,29274.5,29650.400000095367,30042.599999904633,30442.700000047684,30946.400000095367,48482.59999990463,49554.59999990463,49874.299999952316,50274.5,51474.40000009537,51826.90000009537,52202.299999952316,53314.299999952316,53778.5,59834.90000009537,60322.200000047684,60650.299999952316,61050.5,61394.299999952316,61778.299999952316,62346.5,63170.299999952316,63634.200000047684,64050.299999952316],"key_events":[],"mouse_events":[13034.5,18018.599999904633,18426.5,18818.299999952316,19434.5,19874.299999952316,20338.599999904633,21498.599999904633,22314.700000047684,26146.700000047684,28530.700000047684,28938.900000095367,29274.5,29650.400000095367,30042.599999904633,30442.700000047684,30946.400000095367,39058.299999952316,43562.90000009537,48482.59999990463,49554.59999990463,49874.299999952316,50274.5,50650.59999990463,51474.40000009537,51826.90000009537,52202.299999952316,52603,53314.299999952316,53778.5,57234.59999990463,59834.90000009537,60322.200000047684,60650.299999952316,61050.5,61394.299999952316,61778.299999952316,62346.5,63170.299999952316,63634.200000047684,64050.299999952316,64802.200000047684],"honeypot":0,"survey":"mace","page":5,"trial_type":"survey-mace","trial_index":13,"time_elapsed":672652,"internal_node_id":"0.0-13.0","task_version":"prescreen-v0.3","browser_interactions":0},{"responses":{"01":"Yes","01_ages_5":"5","01_ages_6":"6","01_ages_7":"7","01_ages_8":"8","01_ages_17":"17","01_ages_18":"18","02":"Yes","02_ages_5":"5","02_ages_6":"6","02_ages_7":"7","02_ages_8":"8","02_ages_11":"11","02_ages_12":"12","02_ages_13":"13","02_ages_14":"14","03":"Yes","03_ages_7":"7","03_ages_8":"8","03_ages_9":"9","03_ages_10":"10","03_ages_11":"11","04":"No","05":"Yes","05_ages_13":"13","05_ages_14":"14"},"rt":58348.59999990463,"item_order":[0,1,2,3,4],"radio_events":[5090.200000047684,19554.799999952316,33394.5,46458.299999952316,50610.200000047684],"checkbox_events":[8970.299999952316,9426.399999856949,12475.099999904633,12786.200000047684,13562.5,16330.099999904633,20419.099999904633,20834.099999904633,21650.099999904633,21962.299999952316,23930,24362,28314.299999952316,29674.5,36506,36850,37170.09999990463,38402.299999952316,39338.09999990463,57138.200000047684,57602.59999990463],"key_events":[],"mouse_events":[5090.200000047684,8970.299999952316,9426.399999856949,12475.099999904633,12786.200000047684,13562.5,16330.099999904633,19554.799999952316,20419.099999904633,20834.099999904633,21314.39999985695,21650.099999904633,21962.299999952316,22682.700000047684,23930,24362,28314.299999952316,29674.5,33394.5,36506,36850,37170.09999990463,37586.299999952316,37930,38402.299999952316,38762.39999985695,39338.09999990463,46458.299999952316,50610.200000047684,56826.200000047684,57138.200000047684,57602.59999990463,58346.09999990463],"honeypot":0,"survey":"mace","page":6,"trial_type":"survey-mace","trial_index":14,"time_elapsed":731004,"internal_node_id":"0.0-14.0","task_version":"prescreen-v0.3","browser_interactions":0},{"responses":{"01":"No","02":"No","03":"Yes","03_ages_7":"7","03_ages_8":"8","03_ages_9":"9","03_ages_10":"10","03_ages_11":"11","03_ages_12":"12","04":"Yes","04_ages_7":"7","04_ages_8":"8","04_ages_9":"9","04_ages_10":"10","04_ages_11":"11","04_ages_12":"12","05":"No","06":"No","07":"No"},"rt":36532.700000047684,"item_order":[0,1,2,3,4,5,6],"radio_events":[5553.900000095367,9969.200000047684,12305.100000143051,22657,30681.700000047684,33601.10000014305,35465.60000014305],"checkbox_events":[15545.100000143051,15921.299999952316,16465.700000047684,16785.10000014305,17193.900000095367,17961.200000047684,23897.5,24257.60000014305,24729.299999952316,25225.400000095367,25545.400000095367,25913.200000047684],"key_events":[],"mouse_events":[5553.900000095367,9969.200000047684,12305.100000143051,15545.100000143051,15921.299999952316,16465.700000047684,16785.10000014305,17193.900000095367,17593,17961.200000047684,22657,23897.5,24257.60000014305,24729.299999952316,25225.400000095367,25545.400000095367,25913.200000047684,30681.700000047684,33601.10000014305,35465.60000014305,36529.60000014305],"honeypot":0,"survey":"mace","page":7,"trial_type":"survey-mace","trial_index":15,"time_elapsed":767542,"internal_node_id":"0.0-15.0","task_version":"prescreen-v0.3","browser_interactions":0},{"responses":{"01":"Yes","01_ages_8":"8","01_ages_9":"9","01_ages_10":"10","01_ages_11":"11","01_ages_12":"12","01_ages_13":"13","01_ages_14":"14","01_ages_15":"15","01_ages_16":"16","01_ages_17":"17","01_ages_18":"18","02":"Yes","02_ages_7":"7","02_ages_8":"8","02_ages_9":"9","02_ages_10":"10","02_ages_11":"11","02_ages_12":"12","02_ages_13":"13","02_ages_14":"14","02_ages_15":"15","02_ages_16":"16","02_ages_17":"17","02_ages_18":"18","03":"No","04":"Yes","04_ages_7":"7","04_ages_8":"8","04_ages_9":"9","04_ages_10":"10","04_ages_11":"11","04_ages_12":"12","04_ages_13":"13","04_ages_14":"14","04_ages_15":"15","04_ages_16":"16","04_ages_17":"17","04_ages_18":"18"},"rt":53882.40000009537,"item_order":[0,1,2,3],"radio_events":[13928.599999904633,25384.700000047684,41696.90000009537,45776],"checkbox_events":[19080.799999952316,19392.5,19768.5,20192.5,20608.5,21640.200000047684,22272.400000095367,22704.200000047684,23144.400000095367,23552.400000095367,24352.400000095367,28512.599999904633,28920.400000095367,29352.200000047684,29728.299999952316,30536.5,31248.5,31736.099999904633,32224.299999952316,32904.200000047684,33320.5,33824.200000047684,34352.299999952316,47688.90000009537,48248.5,48584.299999952316,49000.299999952316,49760.200000047684,50624.59999990463,51016.40000009537,51424.799999952316,51824.200000047684,52192.299999952316,52792.799999952316,53184.40000009537],"key_events":[],"mouse_events":[13928.599999904633,19080.799999952316,19392.5,19768.5,20192.5,20608.5,21000.5,21640.200000047684,22272.400000095367,22704.200000047684,23144.400000095367,23552.400000095367,24352.400000095367,25384.700000047684,28512.599999904633,28920.400000095367,29352.200000047684,29728.299999952316,30536.5,30928.400000095367,31248.5,31736.099999904633,32224.299999952316,32904.200000047684,33320.5,33824.200000047684,34352.299999952316,40976.200000047684,41696.90000009537,44952.299999952316,45776,47688.90000009537,48248.5,48584.299999952316,49000.299999952316,49760.200000047684,50624.59999990463,51016.40000009537,51424.799999952316,51824.200000047684,52192.299999952316,52792.799999952316,53184.40000009537,53880.40000009537],"honeypot":0,"survey":"mace","page":8,"trial_type":"survey-mace","trial_index":16,"time_elapsed":821427,"internal_node_id":"0.0-16.0","task_version":"prescreen-v0.3","browser_interactions":0},{"responses":{"01":"No","02":"No","03":"No","04":"Yes","04_ages_1":"1","04_ages_2":"2","04_ages_3":"3","04_ages_4":"4","04_ages_5":"5","04_ages_6":"6","04_ages_7":"7","04_ages_8":"8","04_ages_9":"9","04_ages_10":"10","04_ages_11":"11","04_ages_12":"12","04_ages_13":"13","04_ages_14":"14","04_ages_15":"15","04_ages_16":"16","04_ages_17":"17","04_ages_18":"18"},"rt":27788.599999904633,"item_order":[0,1,2,3],"radio_events":[5322.400000095367,9026.299999952316,12458.400000095367,16858.200000047684],"checkbox_events":[18874.900000095367,19954.299999952316,20482.400000095367,20834.299999952316,21274.200000047684,21626.299999952316,22018.299999952316,22386.400000095367,22802.599999904633,23194.400000095367,23986.5,24402.900000095367,25042.400000095367,25466.200000047684,25922.400000095367,26354.900000095367,26754.299999952316,27098.200000047684],"key_events":[],"mouse_events":[5322.400000095367,9026.299999952316,12458.400000095367,16858.200000047684,18874.900000095367,19258.099999904633,19954.299999952316,20482.400000095367,20834.299999952316,21274.200000047684,21626.299999952316,22018.299999952316,22386.400000095367,22802.599999904633,23194.400000095367,23546.200000047684,23986.5,24402.900000095367,25042.400000095367,25466.200000047684,25922.400000095367,26354.900000095367,26754.299999952316,27098.200000047684,27786.400000095367],"honeypot":0,"survey":"mace","page":9,"trial_type":"survey-mace","trial_index":17,"time_elapsed":849220,"internal_node_id":"0.0-17.0","task_version":"prescreen-v0.3","browser_interactions":0},{"responses":{"01":"Yes","01_ages_9":"9","01_ages_10":"10","01_ages_11":"11","01_ages_12":"12","01_ages_13":"13","01_ages_14":"14","01_ages_15":"15","01_ages_16":"16","01_ages_17":"17","01_ages_18":"18","02":"No","03":"Yes","03_ages_7":"7","03_ages_8":"8","03_ages_9":"9","03_ages_10":"10","03_ages_11":"11","03_ages_12":"12","03_ages_13":"13","03_ages_14":"14","03_ages_15":"15","03_ages_16":"16","03_ages_17":"17","03_ages_18":"18","04":"Yes","04_ages_5":"5","04_ages_6":"6","04_ages_7":"7","04_ages_8":"8","04_ages_9":"9","04_ages_10":"10","04_ages_11":"11","04_ages_12":"12","04_ages_13":"13","04_ages_14":"14","04_ages_15":"15","04_ages_16":"16","04_ages_17":"17","04_ages_18":"18","05":"Yes","05_ages_7":"7","05_ages_8":"8","05_ages_9":"9","05_ages_10":"10","05_ages_11":"11","05_ages_12":"12","05_ages_13":"13","05_ages_14":"14","05_ages_15":"15","05_ages_16":"16","05_ages_17":"17","05_ages_18":"18","06":"Yes","06_ages_17":"17","07":"No","08":"No"},"rt":58845,"item_order":[0,1,2,3,4,5,6,7],"radio_events":[3361.7999999523163,15769.399999856949,18601.39999985695,29161.39999985695,37913.59999990463,51281.299999952316,56033.39999985695,58289.39999985695],"checkbox_events":[5793.5,6185.699999809265,6569.299999952316,6993.699999809265,7369.699999809265,7794.5,8201.099999904633,8585.5,8937.899999856949,10769.699999809265,19665.199999809265,19985.5,20329.5,20673.39999985695,21041.5,21449.299999952316,21833.599999904633,22233.299999952316,22625.39999985695,23457.89999985695,23969.5,25793.39999985695,30081.599999904633,30409.299999952316,30777.299999952316,31225.39999985695,31561.299999952316,31929.39999985695,32361.099999904633,32713.199999809265,33097.39999985695,33561.5,33945.5,34377.5,34841.199999809265,35185.39999985695,40217.89999985695,41313.59999990463,41682.09999990463,42489.299999952316,43481.5,44209.199999809265,44713.199999809265,45129.199999809265,45545.199999809265,45985.39999985695,47033.299999952316,47457.39999985695,52954.09999990463],"key_events":[],"mouse_events":[3361.7999999523163,5793.5,6185.699999809265,6569.299999952316,6993.699999809265,7369.699999809265,7794.5,8201.099999904633,8585.5,8937.899999856949,10065.799999952316,10769.699999809265,15769.399999856949,18257.099999904633,18601.39999985695,19665.199999809265,19985.5,20329.5,20673.39999985695,21041.5,21449.299999952316,21833.599999904633,22233.299999952316,22625.39999985695,22977.599999904633,23457.89999985695,23969.5,25793.39999985695,29161.39999985695,30081.599999904633,30409.299999952316,30777.299999952316,31225.39999985695,31561.299999952316,31929.39999985695,32361.099999904633,32713.199999809265,33097.39999985695,33561.5,33945.5,34377.5,34841.199999809265,35185.39999985695,37913.59999990463,40217.89999985695,40562.09999990463,40881.299999952316,41313.59999990463,41682.09999990463,42066.199999809265,42489.299999952316,42929.59999990463,43481.5,43913.89999985695,44209.199999809265,44713.199999809265,45129.199999809265,45545.199999809265,45985.39999985695,46465.09999990463,47033.299999952316,47457.39999985695,51281.299999952316,52345.39999985695,52954.09999990463,56033.39999985695,58289.39999985695,58841.299999952316],"honeypot":0,"survey":"mace","page":10,"trial_type":"survey-mace","trial_index":18,"time_elapsed":908070,"internal_node_id":"0.0-18.0","task_version":"prescreen-v0.3","browser_interactions":0,"instructed":0},{"rt":3288.7000000476837,"trial_type":"mental-health-alert","trial_index":19,"time_elapsed":911360,"internal_node_id":"0.0-19.0","task_version":"prescreen-v0.3","interactions":"[]"}]