[{"view_history":[{"page_index":0,"viewing_time":6096.199998855591},{"page_index":1,"viewing_time":5436.89999961853},{"page_index":2,"viewing_time":4752.300001144409},{"page_index":3,"viewing_time":1378.1999988555908}],"rt":17664.89999961853,"trial_type":"instructions","trial_index":0,"time_elapsed":17698,"internal_node_id":"0.0-0.0","task_version":"prescreen-v0.3"},{"rt":19272.39999961853,"responses":{"age":"22","gender-categorical":"Male","gender-free-response":"","ethnicity":"Not Hispanic or Latino","race":["White"],"education":"High school","siblings":"1"},"trial_type":"survey-demo","trial_index":1,"time_elapsed":36982,"internal_node_id":"0.0-1.0","task_version":"prescreen-v0.3"},{"responses":{"Q17":"1","Q18":"1","Q14":"2","Q19":"1","Q15":"2","Q21":"3","Q09":"2","Q16":"1","Q02":"1","Q08":"2","Q13":"1","Q01":"1","Q20":"0","Q06":"1","Q05":"0","Q10":"1","Q07":"0","Q12":"1","Q11":"2","Q03":"2","Q04":"1"},"rt":102877.70000076294,"item_order":[16,17,13,18,14,20,8,15,1,7,12,0,19,5,4,9,6,11,10,2,3],"radio_events":[9523.900001525879,13345.70000076294,19407.40000152588,24383.20000076294,28944.40000152588,33788.70000076294,38113.20000076294,44583.10000038147,50564.70000076294,53641,58030.30000114441,59668.40000152588,62408.30000114441,70254.10000038147,75875.20000076294,80839.70000076294,86056.20000076294,91366.60000038147,94976.10000038147,97712.40000152588,101803.70000076294],"key_events":[],"mouse_events":[9523.900001525879,13345.70000076294,19407.40000152588,24383.20000076294,28944.40000152588,33788.70000076294,38113.20000076294,44583.10000038147,50564.70000076294,53641,58030.30000114441,59668.40000152588,62408.30000114441,70254.10000038147,74991.30000114441,75875.20000076294,80839.70000076294,86056.20000076294,91366.60000038147,94976.10000038147,97712.40000152588,101803.70000076294,102870.60000038147],"straightlining":0.5238095238095238,"zigzagging":0.8,"honeypot":0,"survey":"sns","trial_type":"survey-template","trial_index":2,"time_elapsed":139872,"internal_node_id":"0.0-2.0","task_version":"prescreen-v0.3","browser_interactions":0,"infrequency":0},{"responses":{"Q04":"2","Q01":"3","Q10":"1","Q07":"3","Q08":"3","Q09":"1","Q13":"0","Q06":"2","Q02":"2","Q12":"1","Q11":"1","Q03":"2","Q05":"3"},"rt":51538.79999923706,"item_order":[3,0,9,6,7,8,12,5,1,11,10,2,4],"radio_events":[9004,11940.69999885559,13808.39999961853,16686.89999961853,20473.5,23304.89999961853,26049,30972.39999961853,33941.29999923706,39165.69999885559,43626.69999885559,47380.39999961853,50757.89999961853],"key_events":[],"mouse_events":[9004,11940.69999885559,13808.39999961853,16686.89999961853,20473.5,23304.89999961853,26049,30972.39999961853,33941.29999923706,39165.69999885559,43626.69999885559,47380.39999961853,50757.89999961853,51534.69999885559],"straightlining":0.3076923076923077,"zigzagging":0.4166666666666667,"honeypot":0,"survey":"bisbas","trial_type":"survey-template","trial_index":3,"time_elapsed":191421,"internal_node_id":"0.0-3.0","task_version":"prescreen-v0.3","browser_interactions":0,"infrequency":0},{"responses":{"Q01":"3","Q02":"4","Q03":"3"},"rt":27054.10000038147,"radio_events":[12655.60000038147,18505.80000114441,26106.70000076294],"key_events":[],"mouse_events":[12655.60000038147,18505.80000114441,26106.70000076294,27052.10000038147],"survey":"map","page":1,"trial_type":"survey-map","trial_index":4,"time_elapsed":218482,"internal_node_id":"0.0-4.0","task_version":"prescreen-v0.3","browser_interactions":0},{"responses":{"Q04":"4","Q05":"4","Q06":"4"},"rt":13501.80000114441,"radio_events":[7912.800001144409,10404.70000076294,12371.70000076294],"key_events":[],"mouse_events":[7912.800001144409,10404.70000076294,12371.70000076294,13500.60000038147],"survey":"map","page":2,"trial_type":"survey-map","trial_index":5,"time_elapsed":231993,"internal_node_id":"0.0-5.0","task_version":"prescreen-v0.3","browser_interactions":0},{"responses":{"Q07":"2","Q08":"1","Q09":"3"},"rt":20059.10000038147,"radio_events":[9579.20000076294,14980.30000114441,19039.5],"key_events":[],"mouse_events":[9579.20000076294,14980.30000114441,19039.5,20057.5],"survey":"map","page":3,"trial_type":"survey-map","trial_index":6,"time_elapsed":252060,"internal_node_id":"0.0-6.0","task_version":"prescreen-v0.3","browser_interactions":0},{"responses":{"Q10":"2","Q11":"2","Q12":"0","Q13":"1","Q16":"0","Q14":"3","Q15":"3"},"rt":40258.40000152588,"radio_events":[7577.60000038147,10437.60000038147,19471.20000076294,26851.5,30532.80000114441,34702.40000152588,39246],"key_events":[],"mouse_events":[7577.60000038147,10437.60000038147,19471.20000076294,26851.5,30532.80000114441,34702.40000152588,39246,40255.5],"survey":"map","page":4,"trial_type":"survey-map","trial_index":7,"time_elapsed":292329,"internal_node_id":"0.0-7.0","task_version":"prescreen-v0.3","browser_interactions":0,"infrequency":0},{"view_history":[{"page_index":0,"viewing_time":3381.1000003814697},{"page_index":1,"viewing_time":6673.800001144409}],"rt":10056.60000038147,"trial_type":"instructions","trial_index":8,"time_elapsed":302391,"internal_node_id":"0.0-8.0","task_version":"prescreen-v0.3"},{"responses":{"01":"No","02":"No","03":"No","04":"No","05":"No","06":"No"},"rt":23353.60000038147,"item_order":[0,1,2,3,4,5],"radio_events":[9265,12735.70000076294,15804.10000038147,17370.79999923706,18932.70000076294,22470.29999923706],"checkbox_events":[],"key_events":[],"mouse_events":[0.20000076293945312,9265,12735.70000076294,15804.10000038147,17370.79999923706,18932.70000076294,22470.29999923706,23345.10000038147],"honeypot":0,"survey":"mace","page":1,"trial_type":"survey-mace","trial_index":9,"time_elapsed":325764,"internal_node_id":"0.0-9.0","task_version":"prescreen-v0.3","browser_interactions":0},{"responses":{"01":"No","02":"No","03":"Yes","03_ages_5":"5","03_ages_6":"6","04":"No","05":"No","06":"No","07":"No","08":"No"},"rt":36895.89999961853,"item_order":[0,1,2,3,4,5,6,7],"radio_events":[3675.699998855591,7902.10000038147,10633.79999923706,25925.79999923706,28081.60000038147,31050,32611.60000038147,35978.5],"checkbox_events":[21320.60000038147,22291.5],"key_events":[],"mouse_events":[3675.699998855591,7902.10000038147,10633.79999923706,21320.60000038147,22291.5,25925.79999923706,28081.60000038147,31050,32611.60000038147,35978.5,36884.89999961853],"honeypot":0,"survey":"mace","page":2,"trial_type":"survey-mace","trial_index":10,"time_elapsed":362680,"internal_node_id":"0.0-10.0","task_version":"prescreen-v0.3","browser_interactions":0},{"responses":{"01":"No","02":"No","03":"No","04":"No"},"rt":17174.79999923706,"item_order":[0,1,2,3],"radio_events":[7648.89999961853,13198.29999923706,14994.29999923706,16203.20000076294],"checkbox_events":[],"key_events":[],"mouse_events":[7648.89999961853,13198.29999923706,14994.29999923706,16203.20000076294,17168.39999961853],"honeypot":0,"survey":"mace","page":3,"trial_type":"survey-mace","trial_index":11,"time_elapsed":379865,"internal_node_id":"0.0-11.0","task_version":"prescreen-v0.3","browser_interactions":0},{"responses":{"01":"No","02":"No"},"rt":10829.5,"item_order":[0,1],"radio_events":[7334.89999961853,9678.60000038147],"checkbox_events":[],"key_events":[],"mouse_events":[7334.89999961853,9678.60000038147,10824],"honeypot":0,"survey":"mace","page":4,"trial_type":"survey-mace","trial_index":12,"time_elapsed":390702,"internal_node_id":"0.0-12.0","task_version":"prescreen-v0.3","browser_interactions":0},{"responses":{"01":"No","02":"No","03":"No","04":"No","05":"No"},"rt":30682.30000114441,"item_order":[0,1,2,3,4],"radio_events":[14883.70000076294,17761.20000076294,21936,27182.20000076294,29802.90000152588],"checkbox_events":[],"key_events":[],"mouse_events":[14883.70000076294,17761.20000076294,21936,27182.20000076294,29802.90000152588,30675.20000076294],"honeypot":0,"survey":"mace","page":5,"trial_type":"survey-mace","trial_index":13,"time_elapsed":421393,"internal_node_id":"0.0-13.0","task_version":"prescreen-v0.3","browser_interactions":0},{"responses":{"01":"No","02":"Yes","02_ages_8":"8","02_ages_9":"9","02_ages_10":"10","03":"No","04":"Yes","04_ages_8":"8","04_ages_9":"9","04_ages_10":"10","05":"No"},"rt":44059.59999847412,"item_order":[0,1,2,3,4],"radio_events":[10470.79999923706,20767.39999961853,29011.79999923706,33157.09999847412,43308.09999847412],"checkbox_events":[23911.39999961853,24632.5,25553.79999923706,37369.5,38048.09999847412,38857.39999961853],"key_events":[],"mouse_events":[10470.79999923706,20767.39999961853,23911.39999961853,24632.5,25553.79999923706,29011.79999923706,33157.09999847412,37369.5,38048.09999847412,38857.39999961853,42474.79999923706,43308.09999847412,44052.59999847412],"honeypot":0,"survey":"mace","page":6,"trial_type":"survey-mace","trial_index":14,"time_elapsed":465461,"internal_node_id":"0.0-14.0","task_version":"prescreen-v0.3","browser_interactions":0},{"responses":{"01":"No","02":"No","03":"Yes","03_ages_6":"6","03_ages_7":"7","03_ages_8":"8","03_ages_9":"9","03_ages_10":"10","04":"No","05":"No","06":"No","07":"No"},"rt":29078.79999923706,"item_order":[0,1,2,3,4,5,6],"radio_events":[5197.799999237061,8641.29999923706,11778.39999961853,22177,25031.59999847412,26963.89999961853,28357.69999885559],"checkbox_events":[16212.599998474121,16965.5,18070.5,18663.89999961853,19345.69999885559],"key_events":[],"mouse_events":[5197.799999237061,8641.29999923706,11778.39999961853,16212.599998474121,16965.5,17479,18070.5,18663.89999961853,19345.69999885559,22177,25031.59999847412,26963.89999961853,28357.69999885559,29068.5],"honeypot":0,"survey":"mace","page":7,"trial_type":"survey-mace","trial_index":15,"time_elapsed":494548,"internal_node_id":"0.0-15.0","task_version":"prescreen-v0.3","browser_interactions":0},{"responses":{"01":"No","02":"No","03":"No","04":"No"},"rt":23701.39999961853,"item_order":[0,1,2,3],"radio_events":[11501.19999885559,15301.89999961853,19428.29999923706,22972.69999885559],"checkbox_events":[],"key_events":[],"mouse_events":[11501.19999885559,15301.89999961853,19428.29999923706,22972.69999885559,23694.10000038147],"honeypot":0,"survey":"mace","page":8,"trial_type":"survey-mace","trial_index":16,"time_elapsed":518256,"internal_node_id":"0.0-16.0","task_version":"prescreen-v0.3","browser_interactions":0},{"responses":{"01":"Yes","01_ages_1":"1","01_ages_2":"2","01_ages_3":"3","01_ages_4":"4","01_ages_5":"5","01_ages_6":"6","01_ages_7":"7","01_ages_8":"8","01_ages_9":"9","01_ages_10":"10","01_ages_11":"11","01_ages_12":"12","01_ages_13":"13","01_ages_14":"14","01_ages_15":"15","01_ages_16":"16","01_ages_17":"17","01_ages_18":"18","02":"Yes","02_ages_1":"1","02_ages_2":"2","02_ages_3":"3","02_ages_4":"4","02_ages_5":"5","02_ages_6":"6","02_ages_7":"7","02_ages_8":"8","02_ages_9":"9","02_ages_10":"10","02_ages_11":"11","02_ages_12":"12","02_ages_13":"13","02_ages_14":"14","02_ages_15":"15","02_ages_16":"16","02_ages_17":"17","02_ages_18":"18","03":"Yes","03_ages_1":"1","03_ages_2":"2","03_ages_3":"3","03_ages_4":"4","03_ages_5":"5","03_ages_6":"6","03_ages_7":"7","03_ages_8":"8","03_ages_9":"9","03_ages_10":"10","03_ages_11":"11","03_ages_12":"12","03_ages_13":"13","03_ages_14":"14","03_ages_15":"15","03_ages_16":"16","03_ages_17":"17","03_ages_18":"18","04":"Yes","04_ages_1":"1","04_ages_2":"2","04_ages_3":"3","04_ages_4":"4","04_ages_5":"5","04_ages_6":"6","04_ages_7":"7","04_ages_8":"8","04_ages_9":"9","04_ages_10":"10","04_ages_11":"11","04_ages_12":"12","04_ages_13":"13","04_ages_14":"14","04_ages_15":"15","04_ages_16":"16","04_ages_17":"17","04_ages_18":"18"},"rt":79770.60000038147,"item_order":[0,1,2,3],"radio_events":[7173.200000762939,29480.39999961853,50005.20000076294,67356.70000076294],"checkbox_events":[13756.20000076294,14459.20000076294,14949.30000114441,15453.80000114441,15974.30000114441,16463.20000076294,17476.80000114441,18020.89999961853,18606.30000114441,19158.60000038147,21212.89999961853,21748.30000114441,22824.10000038147,23296.89999961853,23890.5,24705.5,25301.80000114441,25927.20000076294,31073.80000114441,32989,33497.70000076294,34043.30000114441,35157.30000114441,35701.39999961853,36598.10000038147,37499.60000038147,38028,38612.80000114441,39847.30000114441,40433.5,41096.70000076294,41249,42021.89999961853,42591.60000038147,43248.10000038147,43864.89999961853,44417.89999961853,45002.39999961853,51239,51768.30000114441,52329,52845.60000038147,53366.5,53847.10000038147,54471.80000114441,55009.30000114441,55553.20000076294,56106.70000076294,56663,57231.70000076294,57761.39999961853,58281.30000114441,58811,59339.10000038147,59867.70000076294,60428.70000076294,68907.80000114441,69429.39999961853,69998.30000114441,70501.20000076294,70967.20000076294,71471.70000076294,72000.60000038147,73045.20000076294,73550.89999961853,74664.20000076294,75248.70000076294,75785.5,76306.10000038147,76835,77336,77880.89999961853,78409.10000038147,78913.20000076294],"key_events":[],"mouse_events":[7173.200000762939,13756.20000076294,14459.20000076294,14949.30000114441,15453.80000114441,15974.30000114441,16463.20000076294,17476.80000114441,18020.89999961853,18606.30000114441,19158.60000038147,21212.89999961853,21748.30000114441,22277.60000038147,22824.10000038147,23296.89999961853,23890.5,24705.5,25301.80000114441,25927.20000076294,29480.39999961853,31073.80000114441,32060.60000038147,32989,33497.70000076294,34043.30000114441,34643.10000038147,35157.30000114441,35701.39999961853,36598.10000038147,37499.60000038147,38028,38612.80000114441,39214.70000076294,39847.30000114441,40433.5,41096.70000076294,41249,42021.89999961853,42591.60000038147,43248.10000038147,43864.89999961853,44417.89999961853,45002.39999961853,50005.20000076294,51239,51768.30000114441,52329,52845.60000038147,53366.5,53847.10000038147,54471.80000114441,55009.30000114441,55553.20000076294,56106.70000076294,56663,57231.70000076294,57761.39999961853,58281.30000114441,58811,59339.10000038147,59867.70000076294,60428.70000076294,67356.70000076294,68907.80000114441,69429.39999961853,69998.30000114441,70501.20000076294,70967.20000076294,71471.70000076294,72000.60000038147,72497.5,73045.20000076294,73550.89999961853,74104.39999961853,74664.20000076294,75248.70000076294,75785.5,76306.10000038147,76835,77336,77880.89999961853,78409.10000038147,78913.20000076294,79763.89999961853],"honeypot":0,"survey":"mace","page":9,"trial_type":"survey-mace","trial_index":17,"time_elapsed":598035,"internal_node_id":"0.0-17.0","task_version":"prescreen-v0.3","browser_interactions":0},{"responses":{"01":"No","02":"No","03":"No","04":"No","05":"No","06":"Yes","06_ages_17":"17","07":"Yes","07_ages_1":"1","07_ages_2":"2","07_ages_3":"3","07_ages_4":"4","07_ages_5":"5","07_ages_6":"6","07_ages_7":"7","07_ages_8":"8","07_ages_9":"9","07_ages_10":"10","07_ages_11":"11","07_ages_12":"12","07_ages_13":"13","07_ages_14":"14","07_ages_15":"15","07_ages_16":"16","07_ages_17":"17","07_ages_18":"18","08":"Yes","08_ages_1":"1","08_ages_2":"2","08_ages_3":"3","08_ages_4":"4","08_ages_5":"5","08_ages_6":"6","08_ages_7":"7","08_ages_8":"8","08_ages_9":"9","08_ages_10":"10","08_ages_11":"11","08_ages_12":"12","08_ages_13":"13","08_ages_14":"14","08_ages_15":"15","08_ages_16":"16","08_ages_17":"17","08_ages_18":"18"},"rt":51950.89999961853,"item_order":[0,1,2,3,4,5,6,7],"radio_events":[4963.60000038147,6394.200000762939,9150.39999961853,11284.60000038147,13439.10000038147,16752.20000076294,23188.39999961853,38836.5],"checkbox_events":[18258.60000038147,25415.89999961853,26185.30000114441,26853.10000038147,27420.60000038147,28007.30000114441,29087.5,29583.5,30113.39999961853,30626.5,31431.20000076294,32600.60000038147,33176.80000114441,34024.80000114441,34626,35174,35680.89999961853,36248.20000076294,36825.60000038147,40307,40882.20000076294,41411.30000114441,41931.5,42466.80000114441,42982,43489.60000038147,44066.30000114441,45332.20000076294,46493.5,47038.60000038147,47634.30000114441,48180.30000114441,48764.80000114441,49317.60000038147,49933,50477,51247.80000114441],"key_events":[],"mouse_events":[4963.60000038147,6394.200000762939,9150.39999961853,11284.60000038147,13439.10000038147,16752.20000076294,18258.60000038147,23188.39999961853,25415.89999961853,26185.30000114441,26853.10000038147,27420.60000038147,28007.30000114441,28519.70000076294,29087.5,29583.5,30113.39999961853,30626.5,31431.20000076294,31992.39999961853,32600.60000038147,33176.80000114441,34024.80000114441,34626,35174,35680.89999961853,36248.20000076294,36825.60000038147,38836.5,40307,40882.20000076294,41411.30000114441,41931.5,42466.80000114441,42982,43489.60000038147,44066.30000114441,44603.5,45332.20000076294,45909.80000114441,46493.5,47038.60000038147,47634.30000114441,48180.30000114441,48764.80000114441,49317.60000038147,49933,50477,51247.80000114441,51940.80000114441],"honeypot":0,"survey":"mace","page":10,"trial_type":"survey-mace","trial_index":18,"time_elapsed":649996,"internal_node_id":"0.0-18.0","task_version":"prescreen-v0.3","browser_interactions":0,"instructed":0},{"rt":7636.10000038147,"trial_type":"mental-health-alert","trial_index":19,"time_elapsed":657638,"internal_node_id":"0.0-19.0","task_version":"prescreen-v0.3","interactions":"[]"}]