[{"view_history":[{"page_index":0,"viewing_time":2453.7000000001863},{"page_index":1,"viewing_time":1391.8999999994412},{"page_index":2,"viewing_time":1823.6000000005588},{"page_index":3,"viewing_time":1928.0999999996275}],"rt":7598.299999999814,"trial_type":"instructions","trial_index":0,"time_elapsed":7623,"internal_node_id":"0.0-0.0","task_version":"prescreen-v0.3"},{"rt":16801.5,"responses":{"age":"46","gender-categorical":"Female","gender-free-response":"","ethnicity":"Not Hispanic or Latino","race":["White"],"education":"Bachelor degree"},"trial_type":"survey-demo","trial_index":1,"time_elapsed":24433,"internal_node_id":"0.0-1.0","task_version":"prescreen-v0.3"},{"responses":{"Q04":"1","Q14":"1","Q03":"2","Q11":"3","Q12":"1","Q07":"1","Q15":"2","Q10":"2","Q19":"1","Q01":"1","Q16":"0","Q09":"2","Q20":"1","Q13":"1","Q08":"1","Q21":"3","Q02":"2","Q06":"1","Q17":"2","Q18":"1","Q05":"1"},"rt":82224.70000000019,"item_order":[3,13,2,10,11,6,14,9,18,0,15,8,19,12,7,20,1,5,16,17,4],"radio_events":[8565.5,11997.200000000186,14165.100000000559,16805.10000000056,20909.200000000186,26597.10000000056,30581.200000000186,30628.900000000373,33389.40000000037,37061.40000000037,40069.10000000056,43901.5,45613.5,45725.200000000186,48276.700000000186,51413.10000000056,53884.800000000745,57220.90000000037,57252.700000000186,60516.800000000745,64660.90000000037,70028.70000000019,75780.5,81228.5],"key_events":[],"mouse_events":[8565.5,11997.200000000186,14165.100000000559,16805.10000000056,20909.200000000186,26597.10000000056,30581.200000000186,30628.900000000373,33389.40000000037,37061.40000000037,40069.10000000056,43901.5,45613.5,45725.200000000186,48276.700000000186,51413.10000000056,53884.800000000745,57220.90000000037,57252.700000000186,60516.800000000745,64660.90000000037,67332.80000000075,67452.60000000056,70028.70000000019,75780.5,77068.70000000019,81228.5,82220.90000000037],"straightlining":0.5714285714285714,"zigzagging":0.5,"honeypot":0,"survey":"sns","trial_type":"survey-template","trial_index":2,"time_elapsed":106669,"internal_node_id":"0.0-2.0","task_version":"prescreen-v0.3","browser_interactions":0,"infrequency":0},{"responses":{"Q06":"2","Q02":"2","Q01":"2","Q05":"2","Q07":"2","Q09":"2","Q08":"2","Q13":"0","Q12":"1","Q04":"2","Q10":"2","Q11":"1","Q03":"2"},"rt":38662.799999999814,"item_order":[5,1,0,4,6,8,7,12,11,3,9,10,2],"radio_events":[6052.5,8740.799999999814,9964.700000000186,11812.700000000186,11884.5,13756.700000000186,16348.700000000186,18420.599999999627,21132.599999999627,24444.599999999627,27844.599999999627,29380.5,34388.59999999963,37925.59999999963],"key_events":[],"mouse_events":[6052.5,8740.799999999814,9964.700000000186,11812.700000000186,11884.5,13756.700000000186,16348.700000000186,18420.599999999627,21132.599999999627,24444.599999999627,27844.599999999627,29380.5,34388.59999999963,37925.59999999963,38661.40000000037],"straightlining":0.7692307692307693,"zigzagging":0.3333333333333333,"honeypot":0,"survey":"bisbas","trial_type":"survey-template","trial_index":3,"time_elapsed":145337,"internal_node_id":"0.0-3.0","task_version":"prescreen-v0.3","browser_interactions":0,"infrequency":0},{"responses":{"Q01":"4","Q02":"4","Q03":"4"},"rt":104441.70000000019,"radio_events":[92568.5,99704.40000000037,103664.29999999981],"key_events":[],"mouse_events":[92568.5,96568.40000000037,99704.40000000037,100192.70000000019,103664.29999999981,104440.60000000056],"survey":"map","page":1,"trial_type":"survey-map","trial_index":4,"time_elapsed":249782,"internal_node_id":"0.0-4.0","task_version":"prescreen-v0.3","browser_interactions":0},{"responses":{"Q04":"0","Q05":"3","Q06":"3"},"rt":21842.599999999627,"radio_events":[7842.299999999814,16610.700000000186,17490,20354],"key_events":[],"mouse_events":[3794.2000000001863,7842.299999999814,8794.200000000186,16610.700000000186,17490,20354,21842.099999999627],"survey":"map","page":2,"trial_type":"survey-map","trial_index":5,"time_elapsed":271630,"internal_node_id":"0.0-5.0","task_version":"prescreen-v0.3","browser_interactions":0},{"responses":{"Q07":"2","Q08":"2","Q09":"2"},"rt":121131,"radio_events":[115177.90000000037,117666.40000000037,120281.90000000037],"key_events":[],"mouse_events":[115177.90000000037,117666.40000000037,120281.90000000037,121130.20000000019],"survey":"map","page":3,"trial_type":"survey-map","trial_index":6,"time_elapsed":392765,"internal_node_id":"0.0-6.0","task_version":"prescreen-v0.3","browser_interactions":0},{"responses":{"Q10":"1","Q11":"2","Q12":"1","Q13":"2","Q16":"0","Q14":"2","Q15":"2"},"rt":40355.59999999963,"radio_events":[18467,22691,26707.299999999814,29755.099999999627,33995,36650.799999999814,39259.5],"key_events":[],"mouse_events":[18467,22691,26707.299999999814,29755.099999999627,33995,36650.799999999814,39259.5,40354.59999999963],"survey":"map","page":4,"trial_type":"survey-map","trial_index":7,"time_elapsed":433124,"internal_node_id":"0.0-7.0","task_version":"prescreen-v0.3","browser_interactions":0,"infrequency":0},{"view_history":[{"page_index":0,"viewing_time":2284.5},{"page_index":1,"viewing_time":3567.7999999998137}],"rt":5853.0999999996275,"trial_type":"instructions","trial_index":8,"time_elapsed":438979,"internal_node_id":"0.0-8.0","task_version":"prescreen-v0.3"},{"responses":{"01":"No","02":"No","03":"No","04":"No","05":"No","06":"No"},"rt":39291.60000000056,"item_order":[0,1,2,3,4,5],"radio_events":[23905.400000000373,27376.700000000186,29577,30545.10000000056,34376.60000000056,38440.299999999814],"checkbox_events":[],"key_events":[],"mouse_events":[0.2999999998137355,23905.400000000373,27376.700000000186,29577,30545.10000000056,31848.299999999814,34376.60000000056,38440.299999999814,39288.799999999814],"honeypot":0,"survey":"mace","page":1,"trial_type":"survey-mace","trial_index":9,"time_elapsed":478281,"internal_node_id":"0.0-9.0","task_version":"prescreen-v0.3","browser_interactions":0},{"responses":{"01":"Yes","01_ages_5":"5","01_ages_8":"8","02":"No","03":"Yes","03_ages_5":"5","03_ages_6":"6","03_ages_7":"7","04":"No","05":"No","06":"No","07":"No","08":"No"},"rt":34418.799999999814,"item_order":[0,1,2,3,4,5,6,7],"radio_events":[9902,20334,21486,27789.799999999814,29965.900000000373,31069.900000000373,32478.700000000186,33805.799999999814],"checkbox_events":[14606.400000000373,16574.5,23782.200000000186,24719,25894],"key_events":[],"mouse_events":[9902,14606.400000000373,16574.5,18182.299999999814,20334,21486,23782.200000000186,24719,25373.599999999627,25894,27789.799999999814,29965.900000000373,31069.900000000373,32478.700000000186,33805.799999999814,34415.200000000186],"honeypot":0,"survey":"mace","page":2,"trial_type":"survey-mace","trial_index":10,"time_elapsed":512706,"internal_node_id":"0.0-10.0","task_version":"prescreen-v0.3","browser_interactions":0},{"responses":{"01":"No","02":"No","03":"No","04":"No"},"rt":21286.900000000373,"item_order":[0,1,2,3],"radio_events":[16965,18356.900000000373,18389.200000000186,19333,20589.400000000373],"checkbox_events":[],"key_events":[],"mouse_events":[76.79999999981374,16965,18356.900000000373,18389.200000000186,19333,20589.400000000373,21284.799999999814],"honeypot":0,"survey":"mace","page":3,"trial_type":"survey-mace","trial_index":11,"time_elapsed":533999,"internal_node_id":"0.0-11.0","task_version":"prescreen-v0.3","browser_interactions":0},{"responses":{"01":"No","02":"No"},"rt":6769.299999999814,"item_order":[0,1],"radio_events":[4761,5976.5],"checkbox_events":[],"key_events":[],"mouse_events":[4761,5456.299999999814,5976.5,6400.799999999814,6768.299999999814],"honeypot":0,"survey":"mace","page":4,"trial_type":"survey-mace","trial_index":12,"time_elapsed":540772,"internal_node_id":"0.0-12.0","task_version":"prescreen-v0.3","browser_interactions":0},{"responses":{"01":"No","02":"No","03":"No","04":"No","05":"No"},"rt":14141.400000000373,"item_order":[0,1,2,3,4],"radio_events":[7339.100000000559,9259.300000000745,11651,12610.900000000373,13266.900000000373],"checkbox_events":[],"key_events":[],"mouse_events":[7339.100000000559,9259.300000000745,11651,12610.900000000373,13266.900000000373,14138.900000000373],"honeypot":0,"survey":"mace","page":5,"trial_type":"survey-mace","trial_index":13,"time_elapsed":554918,"internal_node_id":"0.0-13.0","task_version":"prescreen-v0.3","browser_interactions":0},{"responses":{"01":"Yes","01_ages_5":"5","01_ages_6":"6","01_ages_7":"7","01_ages_8":"8","02":"Yes","02_ages_5":"5","02_ages_6":"6","02_ages_7":"7","02_ages_8":"8","02_ages_9":"9","02_ages_10":"10","03":"Yes","03_ages_11":"11","03_ages_12":"12","04":"Yes","04_ages_11":"11","04_ages_12":"12","04_ages_13":"13","05":"No"},"rt":36219.199999999255,"item_order":[0,1,2,3,4],"radio_events":[10896.899999999441,18432.5,27144.89999999944,31064.299999999814,35440.59999999963],"checkbox_events":[13200.599999999627,14024.599999999627,14624.799999999814,15096.799999999814,15178.699999999255,15520.599999999627,15577.299999999814,16177.099999999627,20136.89999999944,20496.599999999627,20560.299999999814,21168.599999999627,21696.5,22320.599999999627,22680.39999999944,22752.89999999944,23392.299999999814,25360.299999999814,28281.199999999255,28768.599999999627,32256.5,32760.299999999814,33240.299999999814],"key_events":[],"mouse_events":[10896.899999999441,13200.599999999627,14024.599999999627,14624.799999999814,15096.799999999814,15178.699999999255,15520.599999999627,15577.299999999814,16177.099999999627,18432.5,20136.89999999944,20496.599999999627,20560.299999999814,21168.599999999627,21696.5,22320.599999999627,22680.39999999944,22752.89999999944,23392.299999999814,23777.099999999627,25360.299999999814,27144.89999999944,28281.199999999255,28768.599999999627,29473.099999999627,31064.299999999814,32256.5,32760.299999999814,33240.299999999814,35440.59999999963,36217],"honeypot":0,"survey":"mace","page":6,"trial_type":"survey-mace","trial_index":14,"time_elapsed":591142,"internal_node_id":"0.0-14.0","task_version":"prescreen-v0.3","browser_interactions":0},{"responses":{"01":"No","02":"No","03":"No","04":"No","05":"No","06":"No","07":"No"},"rt":19395.200000000186,"item_order":[0,1,2,3,4,5,6],"radio_events":[11423.5,12871.5,14023.400000000373,15047.799999999814,15831.700000000186,17895.299999999814,18567.299999999814,18631.200000000186],"checkbox_events":[],"key_events":[],"mouse_events":[11423.5,12871.5,14023.400000000373,15047.799999999814,15831.700000000186,16903.400000000373,17895.299999999814,18567.299999999814,18631.200000000186,19391.400000000373],"honeypot":0,"survey":"mace","page":7,"trial_type":"survey-mace","trial_index":15,"time_elapsed":610543,"internal_node_id":"0.0-15.0","task_version":"prescreen-v0.3","browser_interactions":0},{"responses":{"01":"No","02":"No","03":"No","04":"No"},"rt":42768.90000000037,"item_order":[0,1,2,3],"radio_events":[35799,37863,39423,42126.90000000037],"checkbox_events":[],"key_events":[],"mouse_events":[35799,37863,39423,42126.90000000037,42766.90000000037],"honeypot":0,"survey":"mace","page":8,"trial_type":"survey-mace","trial_index":16,"time_elapsed":653317,"internal_node_id":"0.0-16.0","task_version":"prescreen-v0.3","browser_interactions":0},{"responses":{"01":"Yes","01_ages_1":"1","01_ages_2":"2","01_ages_3":"3","01_ages_4":"4","01_ages_5":"5","01_ages_6":"6","01_ages_7":"7","01_ages_8":"8","01_ages_9":"9","01_ages_10":"10","01_ages_11":"11","01_ages_12":"12","01_ages_13":"13","01_ages_14":"14","01_ages_15":"15","01_ages_16":"16","01_ages_17":"17","01_ages_18":"18","02":"No","03":"Yes","03_ages_1":"1","03_ages_2":"2","03_ages_3":"3","03_ages_4":"4","03_ages_5":"5","03_ages_6":"6","03_ages_7":"7","03_ages_8":"8","03_ages_9":"9","03_ages_10":"10","03_ages_11":"11","03_ages_12":"12","03_ages_13":"13","03_ages_14":"14","03_ages_15":"15","03_ages_16":"16","03_ages_17":"17","03_ages_18":"18","04":"Yes","04_ages_1":"1","04_ages_2":"2","04_ages_3":"3","04_ages_4":"4","04_ages_5":"5","04_ages_6":"6","04_ages_7":"7","04_ages_8":"8","04_ages_9":"9","04_ages_10":"10","04_ages_11":"11","04_ages_12":"12","04_ages_13":"13","04_ages_14":"14","04_ages_15":"15","04_ages_16":"16","04_ages_17":"17","04_ages_18":"18"},"rt":59195.5,"item_order":[0,1,2,3],"radio_events":[14217.899999999441,29425.699999999255,32361.89999999944,48465.299999999814],"checkbox_events":[17714.299999999814,18242,18778.599999999627,19817.699999999255,20202.599999999627,20793.699999999255,21362,21769.699999999255,22201.599999999627,22721.699999999255,23361.699999999255,23794.299999999814,24457.89999999944,24850.39999999944,25353.699999999255,25810,26210.5,26634.199999999255,33858.299999999814,34553.799999999814,35497.89999999944,35921.59999999963,37697.59999999963,38425.699999999255,40146,40529.59999999963,40569.5,40993.39999999944,41449.5,41514,42113.699999999255,42713.89999999944,43593.5,44178.5,44657.59999999963,45257.89999999944,45705.39999999944,46081.59999999963,46689.39999999944,47322.09999999963,49465.39999999944,50113.59999999963,50569.5,51009.59999999963,51442.299999999814,51889.39999999944,52346.299999999814,53257.799999999814,53657.39999999944,54249.5,54721.39999999944,55321.39999999944,55761.39999999944,56193.39999999944,57057.89999999944,57617.5,58057.799999999814,58657.299999999814],"key_events":[],"mouse_events":[14217.899999999441,17714.299999999814,18242,18778.599999999627,19817.699999999255,20202.599999999627,20793.699999999255,21362,21769.699999999255,22201.599999999627,22721.699999999255,23361.699999999255,23794.299999999814,24457.89999999944,24850.39999999944,25353.699999999255,25810,26210.5,26634.199999999255,29425.699999999255,32361.89999999944,33858.299999999814,34553.799999999814,34978.59999999963,35497.89999999944,35921.59999999963,37217.5,37697.59999999963,38425.699999999255,40146,40529.59999999963,40569.5,40993.39999999944,41449.5,41514,42113.699999999255,42713.89999999944,43593.5,44178.5,44657.59999999963,45257.89999999944,45705.39999999944,46081.59999999963,46689.39999999944,47322.09999999963,48465.299999999814,49465.39999999944,50113.59999999963,50569.5,51009.59999999963,51442.299999999814,51889.39999999944,52346.299999999814,52833.39999999944,53257.799999999814,53657.39999999944,54249.5,54721.39999999944,55321.39999999944,55761.39999999944,56193.39999999944,56617.89999999944,57057.89999999944,57617.5,58057.799999999814,58657.299999999814,59193.699999999255],"honeypot":0,"survey":"mace","page":9,"trial_type":"survey-mace","trial_index":17,"time_elapsed":712517,"internal_node_id":"0.0-17.0","task_version":"prescreen-v0.3","browser_interactions":0},{"responses":{"01":"No","02":"No","03":"No","04":"No","05":"No","06":"Yes","06_ages_17":"17","07":"Yes","07_ages_1":"1","07_ages_2":"2","07_ages_3":"3","07_ages_4":"4","07_ages_5":"5","07_ages_6":"6","07_ages_7":"7","07_ages_8":"8","07_ages_9":"9","07_ages_10":"10","07_ages_11":"11","07_ages_12":"12","07_ages_13":"13","07_ages_14":"14","07_ages_15":"15","07_ages_16":"16","07_ages_17":"17","07_ages_18":"18","08":"Yes","08_ages_1":"1","08_ages_2":"2","08_ages_3":"3","08_ages_4":"4","08_ages_5":"5","08_ages_6":"6","08_ages_7":"7","08_ages_8":"8","08_ages_9":"9","08_ages_10":"10","08_ages_11":"11","08_ages_12":"12","08_ages_13":"13","08_ages_14":"14","08_ages_15":"15","08_ages_16":"16","08_ages_17":"17","08_ages_18":"18"},"rt":82667.79999999981,"item_order":[0,1,2,3,4,5,6,7],"radio_events":[7672.200000000186,8552.5,10104.299999999814,11209,16168,20968.200000000186,65231.799999999814,81535.79999999981],"checkbox_events":[17384.200000000186,51096.09999999963,52024.40000000037,52577.799999999814,53120.59999999963,53680.40000000037,54191.90000000037,54687.90000000037,55288.40000000037,56071.799999999814,56591.799999999814,57872,58487.799999999814,58959.90000000037,60247.90000000037,60887.799999999814,61423.90000000037,62063.700000000186,62751.700000000186,67063.70000000019,67607.79999999981,68087.70000000019,68527.79999999981,69103.79999999981,69544.40000000037,69583.59999999963,70223.79999999981,70863.79999999981,71471.70000000019,73167.90000000037,73727.70000000019,74271.79999999981,74695.70000000019,75360.20000000019,75959.90000000037,76336,76703.90000000037,77223.59999999963,77784.20000000019],"key_events":[],"mouse_events":[7672.200000000186,8552.5,10104.299999999814,11209,12592.299999999814,16168,17384.200000000186,20968.200000000186,51096.09999999963,51632.40000000037,52024.40000000037,52577.799999999814,53120.59999999963,53680.40000000037,54191.90000000037,54687.90000000037,55288.40000000037,56071.799999999814,56591.799999999814,57088.09999999963,57872,58487.799999999814,58959.90000000037,59839.700000000186,60247.90000000037,60887.799999999814,61423.90000000037,62063.700000000186,62751.700000000186,65231.799999999814,67063.70000000019,67607.79999999981,68087.70000000019,68527.79999999981,69103.79999999981,69544.40000000037,69583.59999999963,70223.79999999981,70863.79999999981,71471.70000000019,73167.90000000037,73727.70000000019,74271.79999999981,74695.70000000019,75360.20000000019,75959.90000000037,76336,76703.90000000037,77223.59999999963,77784.20000000019,78288,81535.79999999981,82664],"honeypot":0,"survey":"mace","page":10,"trial_type":"survey-mace","trial_index":18,"time_elapsed":795191,"internal_node_id":"0.0-18.0","task_version":"prescreen-v0.3","browser_interactions":0,"instructed":0},{"rt":3999.600000000559,"trial_type":"mental-health-alert","trial_index":19,"time_elapsed":799193,"internal_node_id":"0.0-19.0","task_version":"prescreen-v0.3","interactions":"[]"}]