[{"view_history":[{"page_index":0,"viewing_time":3882.1000000089407},{"page_index":1,"viewing_time":19041.79999999702},{"page_index":2,"viewing_time":2742.5999999940395},{"page_index":3,"viewing_time":1294.800000011921}],"rt":26961.80000001192,"trial_type":"instructions","trial_index":0,"time_elapsed":26978,"internal_node_id":"0.0-0.0","task_version":"prescreen-v0.3"},{"rt":13859.90000000596,"responses":{"age":"25","gender-categorical":"Male","gender-free-response":"","ethnicity":"Not Hispanic or Latino","race":["White"],"education":"Bachelor degree","siblings":"1"},"trial_type":"survey-demo","trial_index":1,"time_elapsed":40842,"internal_node_id":"0.0-1.0","task_version":"prescreen-v0.3"},{"responses":{"Q11":"3","Q09":"3","Q17":"3","Q15":"3","Q06":"1","Q05":"3","Q12":"1","Q07":"1","Q08":"3","Q02":"3","Q18":"2","Q20":"1","Q19":"1","Q21":"3","Q16":"1","Q14":"2","Q03":"1","Q13":"3","Q04":"1","Q01":"2","Q10":"1"},"rt":93674.70000000298,"item_order":[10,8,16,14,5,4,11,6,7,1,17,19,18,20,15,13,2,12,3,0,9],"radio_events":[2882.4000000059605,6907.100000008941,9732.29999999702,15049.40000000596,24271.79999999702,29769.90000000596,36366.10000000894,41345,44779.70000000298,47404.20000000298,51118.90000000596,54112.90000000596,58141.70000000298,61752.40000000596,62126.79999999702,63289.5,65317.79999999702,68297,70678.60000000894,73464.70000000298,78138.90000000596,81048.60000000894,85585.79999999702,89222.20000000298],"key_events":[],"mouse_events":[2882.4000000059605,6907.100000008941,8486.29999999702,9732.29999999702,15049.40000000596,24271.79999999702,29769.90000000596,35653.70000000298,36366.10000000894,39876.90000000596,40787.10000000894,41345,44779.70000000298,47404.20000000298,51118.90000000596,53245,53683.40000000596,54112.90000000596,58141.70000000298,61031.5,61752.40000000596,62126.79999999702,63289.5,65317.79999999702,68297,70678.60000000894,73464.70000000298,78138.90000000596,81048.60000000894,85585.79999999702,88614,89222.20000000298,93673],"straightlining":0.42857142857142855,"zigzagging":0.3,"honeypot":0,"survey":"sns","trial_type":"survey-template","trial_index":2,"time_elapsed":134524,"internal_node_id":"0.0-2.0","task_version":"prescreen-v0.3","browser_interactions":0,"infrequency":0},{"responses":{"Q01":"3","Q02":"3","Q03":"3","Q08":"2","Q04":"3","Q13":"0","Q06":"1","Q07":"2","Q10":"1","Q11":"1","Q05":"2","Q12":"0","Q09":"0"},"rt":52368.70000000298,"item_order":[0,1,2,7,3,12,5,6,9,10,4,11,8],"radio_events":[2615.300000011921,7453.70000000298,12790.20000000298,13347.40000000596,15079.90000000596,21273.5,24392.80000001192,26586,30744.10000000894,34920.80000001192,37330.20000000298,42188.70000000298,45499.60000000894,48966.5,50447.60000000894],"key_events":[],"mouse_events":[2615.300000011921,7453.70000000298,9978.800000011921,12790.20000000298,13347.40000000596,15079.90000000596,18163.80000001192,21273.5,24392.80000001192,26586,30744.10000000894,34375.70000000298,34920.80000001192,36950.30000001192,37330.20000000298,41036.80000001192,42188.70000000298,45499.60000000894,48966.5,50447.60000000894,52367.60000000894],"straightlining":0.3076923076923077,"zigzagging":0.5833333333333334,"honeypot":0,"survey":"bisbas","trial_type":"survey-template","trial_index":3,"time_elapsed":186898,"internal_node_id":"0.0-3.0","task_version":"prescreen-v0.3","browser_interactions":0,"infrequency":0},{"responses":{"Q01":"3","Q02":"2","Q03":"2"},"rt":24550.09999999404,"radio_events":[4535.0999999940395,11036.29999999702,16893.79999999702],"key_events":[],"mouse_events":[4066.2999999970198,4535.0999999940395,10360.29999999702,11036.29999999702,16379.39999999106,16893.79999999702,24549.5],"survey":"map","page":1,"trial_type":"survey-map","trial_index":4,"time_elapsed":211454,"internal_node_id":"0.0-4.0","task_version":"prescreen-v0.3","browser_interactions":0},{"responses":{"Q04":"3","Q05":"3","Q06":"2"},"rt":12850.79999999702,"radio_events":[3270.3999999910593,8077.79999999702,8937.29999999702,9759.09999999404],"key_events":[],"mouse_events":[3270.3999999910593,7225.399999991059,8077.79999999702,8937.29999999702,9759.09999999404,12850.39999999106],"survey":"map","page":2,"trial_type":"survey-map","trial_index":5,"time_elapsed":224309,"internal_node_id":"0.0-5.0","task_version":"prescreen-v0.3","browser_interactions":0},{"responses":{"Q07":"2","Q08":"1","Q09":"3"},"rt":16593.5,"radio_events":[9093.09999999404,12191.29999999702,14674.29999999702],"key_events":[],"mouse_events":[9093.09999999404,12191.29999999702,14674.29999999702,16593.09999999404],"survey":"map","page":3,"trial_type":"survey-map","trial_index":6,"time_elapsed":240906,"internal_node_id":"0.0-6.0","task_version":"prescreen-v0.3","browser_interactions":0},{"responses":{"Q10":"2","Q11":"1","Q12":"2","Q13":"1","Q16":"0","Q14":"1","Q15":"1"},"rt":39766.90000000596,"radio_events":[6824.9000000059605,10070.70000000298,15688.10000000894,24446.20000000298,25814.40000000596,27160.70000000298,30659,34841.80000001192],"key_events":[],"mouse_events":[3741,3976.6000000089407,4209.800000011921,4729.70000000298,6824.9000000059605,10070.70000000298,15688.10000000894,23979.90000000596,24446.20000000298,25814.40000000596,27160.70000000298,30296.80000001192,30659,34841.80000001192,39766],"survey":"map","page":4,"trial_type":"survey-map","trial_index":7,"time_elapsed":280678,"internal_node_id":"0.0-7.0","task_version":"prescreen-v0.3","browser_interactions":0,"infrequency":0},{"view_history":[{"page_index":0,"viewing_time":2763.2000000029802},{"page_index":1,"viewing_time":4194.100000008941}],"rt":6958,"trial_type":"instructions","trial_index":8,"time_elapsed":287640,"internal_node_id":"0.0-8.0","task_version":"prescreen-v0.3"},{"responses":{"01":"No","02":"No","03":"No","04":"No","05":"No","06":"No"},"rt":24085.79999999702,"item_order":[0,1,2,3,4,5],"radio_events":[6343,14803.5,18252.79999999702,19228,20699.60000000894,22671.79999999702],"checkbox_events":[],"key_events":[],"mouse_events":[0.20000000298023224,6343,14803.5,18252.79999999702,19228,20699.60000000894,22671.79999999702,24083.5],"honeypot":0,"survey":"mace","page":1,"trial_type":"survey-mace","trial_index":9,"time_elapsed":311732,"internal_node_id":"0.0-9.0","task_version":"prescreen-v0.3","browser_interactions":0},{"responses":{"01":"No","02":"No","03":"Yes","03_ages_3":"3","04":"Yes","04_ages_3":"3","05":"No","06":"No","07":"No","08":"No"},"rt":36083.70000000298,"item_order":[0,1,2,3,4,5,6,7],"radio_events":[2928.9000000059605,4816.100000008941,10513.90000000596,25651.79999999702,29469.60000000894,31688.70000000298,34142.90000000596,34884.40000000596],"checkbox_events":[14054.79999999702,26983.90000000596],"key_events":[],"mouse_events":[2928.9000000059605,4816.100000008941,10513.90000000596,14054.79999999702,25651.79999999702,26983.90000000596,29469.60000000894,31688.70000000298,32760.90000000596,34142.90000000596,34884.40000000596,36080.60000000894],"honeypot":0,"survey":"mace","page":2,"trial_type":"survey-mace","trial_index":10,"time_elapsed":347821,"internal_node_id":"0.0-10.0","task_version":"prescreen-v0.3","browser_interactions":0},{"responses":{"01":"No","02":"No","03":"No","04":"No"},"rt":9884.20000000298,"item_order":[0,1,2,3],"radio_events":[3756.5,5132.600000008941,7390.5,8477.10000000894],"checkbox_events":[],"key_events":[],"mouse_events":[3756.5,5132.600000008941,7390.5,8477.10000000894,9882.60000000894],"honeypot":0,"survey":"mace","page":3,"trial_type":"survey-mace","trial_index":11,"time_elapsed":357711,"internal_node_id":"0.0-11.0","task_version":"prescreen-v0.3","browser_interactions":0},{"responses":{"01":"No","02":"No"},"rt":6626.5,"item_order":[0,1],"radio_events":[3988.3999999910593,4763.5],"checkbox_events":[],"key_events":[],"mouse_events":[3988.3999999910593,4763.5,6625.5999999940395],"honeypot":0,"survey":"mace","page":4,"trial_type":"survey-mace","trial_index":12,"time_elapsed":364342,"internal_node_id":"0.0-12.0","task_version":"prescreen-v0.3","browser_interactions":0},{"responses":{"01":"No","02":"No","03":"No","04":"No","05":"No"},"rt":13884,"item_order":[0,1,2,3,4],"radio_events":[4330,5358.5,8881.199999988079,11397.79999999702,12390],"checkbox_events":[],"key_events":[],"mouse_events":[3581,4330,5358.5,8881.199999988079,11397.79999999702,12390,13882],"honeypot":0,"survey":"mace","page":5,"trial_type":"survey-mace","trial_index":13,"time_elapsed":378231,"internal_node_id":"0.0-13.0","task_version":"prescreen-v0.3","browser_interactions":0},{"responses":{"01":"No","02":"No","03":"No","04":"No","05":"No"},"rt":18527.20000000298,"item_order":[0,1,2,3,4],"radio_events":[6207.5999999940395,8677.39999999106,14416.09999999404,15861.29999999702,16930.5],"checkbox_events":[],"key_events":[],"mouse_events":[4354.79999999702,4950.0999999940395,6207.5999999940395,8677.39999999106,14416.09999999404,15861.29999999702,16930.5,18525.29999999702],"honeypot":0,"survey":"mace","page":6,"trial_type":"survey-mace","trial_index":14,"time_elapsed":396763,"internal_node_id":"0.0-14.0","task_version":"prescreen-v0.3","browser_interactions":0},{"responses":{"01":"No","02":"No","03":"No","04":"No","05":"No","06":"No","07":"No"},"rt":13664.59999999404,"item_order":[0,1,2,3,4,5,6],"radio_events":[3570.9000000059605,5201.20000000298,7221.70000000298,8969.79999999702,10383,11477.59999999404,12627.20000000298],"checkbox_events":[],"key_events":[],"mouse_events":[3570.9000000059605,4513.5999999940395,5201.20000000298,6362,7221.70000000298,8969.79999999702,10383,11477.59999999404,12627.20000000298,13662],"honeypot":0,"survey":"mace","page":7,"trial_type":"survey-mace","trial_index":15,"time_elapsed":410433,"internal_node_id":"0.0-15.0","task_version":"prescreen-v0.3","browser_interactions":0},{"responses":{"01":"No","02":"No","03":"No","04":"No"},"rt":12989.20000000298,"item_order":[0,1,2,3],"radio_events":[5280.0999999940395,6853.4000000059605,8674.20000000298,10083.90000000596],"checkbox_events":[],"key_events":[],"mouse_events":[5280.0999999940395,6853.4000000059605,8076.70000000298,8674.20000000298,10083.90000000596,12987.70000000298],"honeypot":0,"survey":"mace","page":8,"trial_type":"survey-mace","trial_index":16,"time_elapsed":423427,"internal_node_id":"0.0-16.0","task_version":"prescreen-v0.3","browser_interactions":0},{"responses":{"01":"Yes","01_ages_1":"1","01_ages_2":"2","01_ages_3":"3","01_ages_4":"4","01_ages_5":"5","01_ages_6":"6","01_ages_7":"7","01_ages_8":"8","01_ages_9":"9","01_ages_10":"10","01_ages_11":"11","01_ages_12":"12","01_ages_13":"13","01_ages_14":"14","01_ages_15":"15","01_ages_16":"16","01_ages_17":"17","01_ages_18":"18","02":"Yes","02_ages_1":"1","02_ages_2":"2","02_ages_3":"3","02_ages_4":"4","02_ages_5":"5","02_ages_6":"6","02_ages_7":"7","02_ages_8":"8","02_ages_9":"9","02_ages_10":"10","02_ages_11":"11","02_ages_12":"12","02_ages_13":"13","02_ages_14":"14","02_ages_15":"15","02_ages_16":"16","02_ages_17":"17","02_ages_18":"18","03":"Yes","03_ages_1":"1","03_ages_2":"2","03_ages_3":"3","03_ages_4":"4","03_ages_5":"5","03_ages_6":"6","03_ages_7":"7","03_ages_8":"8","03_ages_9":"9","03_ages_10":"10","03_ages_11":"11","03_ages_12":"12","03_ages_13":"13","03_ages_14":"14","03_ages_15":"15","03_ages_16":"16","03_ages_17":"17","03_ages_18":"18","04":"Yes","04_ages_1":"1","04_ages_2":"2","04_ages_3":"3","04_ages_4":"4","04_ages_5":"5","04_ages_6":"6","04_ages_7":"7","04_ages_8":"8","04_ages_9":"9","04_ages_10":"10","04_ages_11":"11","04_ages_12":"12","04_ages_13":"13","04_ages_14":"14","04_ages_15":"15","04_ages_16":"16","04_ages_17":"17","04_ages_18":"18"},"rt":60101.70000000298,"item_order":[0,1,2,3],"radio_events":[2787.8999999910593,21214.5,34548.39999999106,49429.70000000298],"checkbox_events":[8955.09999999404,9373.09999999404,10216.5,10596.5,10990.59999999404,11404.79999999702,12633.5,13006.39999999106,14020.89999999106,14409.79999999702,14826.70000000298,15216.70000000298,15857.5,16276.59999999404,16821.5,17282.20000000298,17759.59999999404,18681,22620.09999999404,22986.5,23386.39999999106,24235.29999999702,24984.89999999106,25396.29999999702,25822.39999999106,26506.5,27138.5,27582.39999999106,28025.39999999106,28552.89999999106,28984.29999999702,29412.20000000298,30400.70000000298,30914.29999999702,31468.70000000298,32042.59999999404,39009.59999999404,40295.79999999702,41502.09999999404,41881.79999999702,42529.29999999702,43297.20000000298,43673.20000000298,44084.29999999702,44458.59999999404,44974.20000000298,45389.39999999106,45828.5,46383.39999999106,46846.20000000298,47183.59999999404,47600.59999999404,48080.5,48480.59999999404,50551.79999999702,51057.5,51420.29999999702,51816.70000000298,52202.29999999702,52603.20000000298,53395.79999999702,54300,54769.29999999702,55360.89999999106,55812.39999999106,56245.29999999702,56871.5,57263.29999999702,57925.79999999702,58383.20000000298,58917.39999999106,59499.70000000298],"key_events":[],"mouse_events":[2787.8999999910593,6082,6362.29999999702,7236.899999991059,7658.79999999702,8263.39999999106,8955.09999999404,9373.09999999404,9729.29999999702,10216.5,10596.5,10990.59999999404,11404.79999999702,11771.39999999106,12295.5,12633.5,13006.39999999106,13656.39999999106,14020.89999999106,14409.79999999702,14826.70000000298,15216.70000000298,15857.5,16276.59999999404,16821.5,17282.20000000298,17759.59999999404,18159.09999999404,18681,21214.5,22620.09999999404,22986.5,23386.39999999106,23855.89999999106,24235.29999999702,24675,24984.89999999106,25396.29999999702,25822.39999999106,26198.89999999106,26506.5,27138.5,27582.39999999106,28025.39999999106,28552.89999999106,28984.29999999702,29412.20000000298,30063.39999999106,30400.70000000298,30914.29999999702,31468.70000000298,32042.59999999404,34548.39999999106,39009.59999999404,40295.79999999702,41502.09999999404,41881.79999999702,42529.29999999702,42911.70000000298,43297.20000000298,43673.20000000298,44084.29999999702,44458.59999999404,44974.20000000298,45389.39999999106,45828.5,46383.39999999106,46846.20000000298,47183.59999999404,47600.59999999404,48080.5,48480.59999999404,49429.70000000298,50551.79999999702,51057.5,51420.29999999702,51816.70000000298,52202.29999999702,52603.20000000298,53023,53395.79999999702,53922.29999999702,54300,54769.29999999702,55360.89999999106,55812.39999999106,56245.29999999702,56871.5,57263.29999999702,57925.79999999702,58383.20000000298,58917.39999999106,59499.70000000298,60100.20000000298],"honeypot":0,"survey":"mace","page":9,"trial_type":"survey-mace","trial_index":17,"time_elapsed":483534,"internal_node_id":"0.0-17.0","task_version":"prescreen-v0.3","browser_interactions":0},{"responses":{"01":"No","02":"No","03":"No","04":"No","05":"No","06":"Yes","06_ages_17":"17","07":"Yes","07_ages_1":"1","07_ages_2":"2","07_ages_3":"3","07_ages_4":"4","07_ages_5":"5","07_ages_6":"6","07_ages_7":"7","07_ages_8":"8","07_ages_9":"9","07_ages_10":"10","07_ages_11":"11","07_ages_12":"12","07_ages_13":"13","07_ages_14":"14","07_ages_15":"15","07_ages_16":"16","07_ages_17":"17","07_ages_18":"18","08":"Yes","08_ages_1":"1","08_ages_2":"2","08_ages_3":"3","08_ages_4":"4","08_ages_5":"5","08_ages_6":"6","08_ages_7":"7","08_ages_8":"8","08_ages_9":"9","08_ages_10":"10","08_ages_11":"11","08_ages_12":"12","08_ages_13":"13","08_ages_14":"14","08_ages_15":"15","08_ages_16":"16","08_ages_17":"17","08_ages_18":"18"},"rt":38817.10000000894,"item_order":[0,1,2,3,4,5,6,7],"radio_events":[3692.2000000029802,4530.9000000059605,5765.300000011921,7319.9000000059605,9713.90000000596,12045.800000011921,15888.70000000298,28954.80000001192],"checkbox_events":[13045.5,18445.60000000894,18885.20000000298,19539.90000000596,19896.60000000894,20411.20000000298,20944.30000001192,21610.40000000596,22368.90000000596,22768.90000000596,23213,25043.70000000298,25416.70000000298,25835.70000000298,26311,26704.60000000894,27127.40000000596,27546.70000000298,27998.40000000596,30236.60000000894,30595.40000000596,30962,31345.70000000298,31877.5,32246.80000001192,32669.40000000596,33071,33509.80000001192,33896.60000000894,34519.70000000298,34928.20000000298,35385.90000000596,35786.40000000596,36607.90000000596,37113.10000000894,37770.20000000298,38176.90000000596],"key_events":[],"mouse_events":[3692.2000000029802,4530.9000000059605,5765.300000011921,7319.9000000059605,9114.800000011921,9713.90000000596,12045.800000011921,13045.5,15888.70000000298,18445.60000000894,18885.20000000298,19539.90000000596,19896.60000000894,20411.20000000298,20944.30000001192,21610.40000000596,22368.90000000596,22768.90000000596,23213,25043.70000000298,25416.70000000298,25835.70000000298,26311,26704.60000000894,27127.40000000596,27546.70000000298,27998.40000000596,28954.80000001192,30236.60000000894,30595.40000000596,30962,31345.70000000298,31877.5,32246.80000001192,32669.40000000596,33071,33509.80000001192,33896.60000000894,34519.70000000298,34928.20000000298,35385.90000000596,35786.40000000596,36607.90000000596,37113.10000000894,37770.20000000298,38176.90000000596,38814.10000000894],"honeypot":0,"survey":"mace","page":10,"trial_type":"survey-mace","trial_index":18,"time_elapsed":522357,"internal_node_id":"0.0-18.0","task_version":"prescreen-v0.3","browser_interactions":0,"instructed":0},{"rt":9104.29999999702,"trial_type":"mental-health-alert","trial_index":19,"time_elapsed":531466,"internal_node_id":"0.0-19.0","task_version":"prescreen-v0.3","interactions":"[{\"event\":\"blur\",\"trial\":0,\"time\":5843},{\"event\":\"focus\",\"trial\":0,\"time\":19919}]"}]