[{"view_history":[{"page_index":0,"viewing_time":3760.000000000001},{"page_index":1,"viewing_time":3822.999999999999},{"page_index":2,"viewing_time":5970},{"page_index":3,"viewing_time":2086}],"rt":15639,"trial_type":"instructions","trial_index":0,"time_elapsed":15644,"internal_node_id":"0.0-0.0","task_version":"prescreen-v0.3"},{"rt":14119.999999999998,"responses":{"age":"25","gender-categorical":"Female","gender-free-response":"","ethnicity":"Not Hispanic or Latino","race":["White"],"education":"Bachelor degree"},"trial_type":"survey-demo","trial_index":1,"time_elapsed":29771,"internal_node_id":"0.0-1.0","task_version":"prescreen-v0.3"},{"responses":{"Q09":"1","Q05":"0","Q03":"0","Q19":"1","Q18":"1","Q01":"1","Q06":"2","Q10":"1","Q12":"1","Q21":"3","Q02":"0","Q16":"1","Q13":"1","Q17":"1","Q11":"2","Q20":"0","Q08":"2","Q04":"1","Q15":"1","Q07":"1","Q14":"1"},"rt":121286,"item_order":[8,4,2,18,17,0,5,9,11,20,1,15,12,16,10,19,7,3,14,6,13],"radio_events":[4963.000000000007,12584,18487,22332,28026,34179.00000000001,38976,46118,49261,55469,62360,66686,72998.00000000001,80002,83450,84892,86909.00000000001,92381,93467,98544.00000000001,102112,110017,119111,119994],"key_events":[],"mouse_events":[4963.000000000007,12584,18487,22332,28026,34179.00000000001,38976,46118,49261,55469,62360,66686,72998.00000000001,80002,83450,84892,86909.00000000001,92381,93467,98544.00000000001,102112,110017,116582,119111,119994,121275],"straightlining":0.6190476190476191,"zigzagging":0.4,"honeypot":0,"survey":"sns","trial_type":"survey-template","trial_index":2,"time_elapsed":151064,"internal_node_id":"0.0-2.0","task_version":"prescreen-v0.3","browser_interactions":0,"infrequency":0},{"responses":{"Q05":"2","Q10":"2","Q09":"2","Q11":"3","Q01":"2","Q03":"1","Q12":"2","Q04":"2","Q13":"0","Q07":"3","Q06":"3","Q08":"3","Q02":"1"},"rt":60946,"item_order":[4,9,8,10,0,2,11,3,12,6,5,7,1],"radio_events":[5147,6940,9913,16233,17826,21791,24636,29960.00000000003,34187,37280,40095,41562,45225,57215,59800],"key_events":[],"mouse_events":[5147,6940,9913,16233,17826,21791,24636,29960.00000000003,34187,37280,40095,41562,45225,57215,59800,60939],"straightlining":0.46153846153846156,"zigzagging":0.4166666666666667,"honeypot":0,"survey":"bisbas","trial_type":"survey-template","trial_index":3,"time_elapsed":212017,"internal_node_id":"0.0-3.0","task_version":"prescreen-v0.3","browser_interactions":0,"infrequency":0},{"responses":{"Q01":"4","Q02":"2","Q03":"4"},"rt":19996,"radio_events":[8228,13186,18857],"key_events":[],"mouse_events":[8228,13186,18857,19992.00000000003],"survey":"map","page":1,"trial_type":"survey-map","trial_index":4,"time_elapsed":232017,"internal_node_id":"0.0-4.0","task_version":"prescreen-v0.3","browser_interactions":0},{"responses":{"Q04":"3","Q05":"3","Q06":"4"},"rt":20731,"radio_events":[9055,13114,15351,19525],"key_events":[],"mouse_events":[9055,13114,15351,19525,20727],"survey":"map","page":2,"trial_type":"survey-map","trial_index":5,"time_elapsed":252752,"internal_node_id":"0.0-5.0","task_version":"prescreen-v0.3","browser_interactions":0},{"responses":{"Q07":"3","Q08":"4","Q09":"3"},"rt":21015,"radio_events":[6217,15087,18948,19774],"key_events":[],"mouse_events":[6217,15087,18948,19774,21011],"survey":"map","page":3,"trial_type":"survey-map","trial_index":6,"time_elapsed":273771,"internal_node_id":"0.0-6.0","task_version":"prescreen-v0.3","browser_interactions":0},{"responses":{"Q10":"3","Q11":"2","Q12":"0","Q13":"1","Q16":"0","Q14":"4","Q15":"3"},"rt":34445,"radio_events":[5999,10087,13204,14218,18422,22348,27726,29258.00000000006,32971],"key_events":[],"mouse_events":[5999,10087,13204,14218,18422,22348,27726,29258.00000000006,32379,32971,34439],"survey":"map","page":4,"trial_type":"survey-map","trial_index":7,"time_elapsed":308222,"internal_node_id":"0.0-7.0","task_version":"prescreen-v0.3","browser_interactions":0,"infrequency":0},{"view_history":[{"page_index":0,"viewing_time":3032.000000000058},{"page_index":1,"viewing_time":6805.999999999942}],"rt":9839,"trial_type":"instructions","trial_index":8,"time_elapsed":318067,"internal_node_id":"0.0-8.0","task_version":"prescreen-v0.3"},{"responses":{"01":"No","02":"Yes","02_ages_15":"15","02_ages_16":"16","02_ages_17":"17","03":"No","04":"No","05":"No","06":"No"},"rt":50575.00000000006,"item_order":[0,1,2,3,4,5],"radio_events":[10310,14759,42501,44183.00000000006,46178,48266],"checkbox_events":[33652,35412,36243,37149,38123.00000000006],"key_events":[],"mouse_events":[0,10310,14759,33652,35412,36243,37149,38123.00000000006,42501,44183.00000000006,46178,48266,50566],"honeypot":0,"survey":"mace","page":1,"trial_type":"survey-mace","trial_index":9,"time_elapsed":368649,"internal_node_id":"0.0-9.0","task_version":"prescreen-v0.3","browser_interactions":0},{"responses":{"01":"No","02":"No","03":"Yes","03_ages_3":"3","03_ages_4":"4","04":"No","05":"No","06":"No","07":"No","08":"No"},"rt":33030.00000000006,"item_order":[0,1,2,3,4,5,6,7],"radio_events":[2417.000000000058,9122,13483,19612,22451,25265,27034,28918],"checkbox_events":[15378,16012,16742,17479],"key_events":[],"mouse_events":[2417.000000000058,9122,13483,15378,16012,16742,17479,19612,22451,25265,27034,28918,33024],"honeypot":0,"survey":"mace","page":2,"trial_type":"survey-mace","trial_index":10,"time_elapsed":401685,"internal_node_id":"0.0-10.0","task_version":"prescreen-v0.3","browser_interactions":0},{"responses":{"01":"No","02":"No","03":"No","04":"No"},"rt":13749,"item_order":[0,1,2,3],"radio_events":[2901,4918,6414,7827],"checkbox_events":[],"key_events":[],"mouse_events":[2901,4918,6414,7827,13743],"honeypot":0,"survey":"mace","page":3,"trial_type":"survey-mace","trial_index":11,"time_elapsed":415437,"internal_node_id":"0.0-11.0","task_version":"prescreen-v0.3","browser_interactions":0},{"responses":{"01":"No","02":"No"},"rt":5203,"item_order":[0,1],"radio_events":[2384,4351.000000000058],"checkbox_events":[],"key_events":[],"mouse_events":[2384,4351.000000000058,5199],"honeypot":0,"survey":"mace","page":4,"trial_type":"survey-mace","trial_index":12,"time_elapsed":420645,"internal_node_id":"0.0-12.0","task_version":"prescreen-v0.3","browser_interactions":0},{"responses":{"01":"No","02":"No","03":"No","04":"No","05":"No"},"rt":16465,"item_order":[0,1,2,3,4],"radio_events":[4740,7310,11932,13490,14500],"checkbox_events":[],"key_events":[],"mouse_events":[4740,7310,11932,13490,14500,16459],"honeypot":0,"survey":"mace","page":5,"trial_type":"survey-mace","trial_index":13,"time_elapsed":437116,"internal_node_id":"0.0-13.0","task_version":"prescreen-v0.3","browser_interactions":0},{"responses":{"01":"Yes","01_ages_15":"15","01_ages_16":"16","01_ages_17":"17","01_ages_18":"18","02":"Yes","02_ages_14":"14","02_ages_15":"15","02_ages_16":"16","02_ages_17":"17","02_ages_18":"18","03":"Yes","03_ages_16":"16","03_ages_17":"17","03_ages_18":"18","04":"No","05":"No"},"rt":46525,"item_order":[0,1,2,3,4],"radio_events":[9948,19533,34317,39458.00000000006,44456],"checkbox_events":[12493,13309.000000000058,14131,15007,23704,25566,26325,27272,27834,35748,36286,37025],"key_events":[],"mouse_events":[9948,12493,13309.000000000058,14131,15007,19533,23704,25566,26325,27272,27834,34317,35748,36286,37025,39458.00000000006,44456,46516.00000000006],"honeypot":0,"survey":"mace","page":6,"trial_type":"survey-mace","trial_index":14,"time_elapsed":483647,"internal_node_id":"0.0-14.0","task_version":"prescreen-v0.3","browser_interactions":0},{"responses":{"01":"No","02":"No","03":"Yes","03_ages_13":"13","03_ages_14":"14","04":"No","05":"No","06":"Yes","06_ages_17":"17","06_ages_18":"18","07":"Yes","07_ages_17":"17","07_ages_18":"18"},"rt":44312,"item_order":[0,1,2,3,4,5,6],"radio_events":[4354,11110.000000000058,16217,30951,33401,36224,40530],"checkbox_events":[18502,20817,38012,41517,42378,43122],"key_events":[],"mouse_events":[4354,11110.000000000058,16217,18502,20817,30951,33401,36224,38012,40530,41517,42378,43122,44303],"honeypot":0,"survey":"mace","page":7,"trial_type":"survey-mace","trial_index":15,"time_elapsed":527965,"internal_node_id":"0.0-15.0","task_version":"prescreen-v0.3","browser_interactions":0},{"responses":{"01":"No","02":"No","03":"No","04":"No"},"rt":18959,"item_order":[0,1,2,3],"radio_events":[8638,12547,14667,18063],"checkbox_events":[],"key_events":[],"mouse_events":[8638,12547,14667,18063,18953],"honeypot":0,"survey":"mace","page":8,"trial_type":"survey-mace","trial_index":16,"time_elapsed":546928,"internal_node_id":"0.0-16.0","task_version":"prescreen-v0.3","browser_interactions":0},{"responses":{"01":"Yes","01_ages_1":"1","01_ages_2":"2","01_ages_3":"3","01_ages_4":"4","01_ages_5":"5","01_ages_6":"6","01_ages_7":"7","01_ages_8":"8","01_ages_9":"9","01_ages_10":"10","01_ages_11":"11","01_ages_12":"12","01_ages_13":"13","01_ages_14":"14","01_ages_15":"15","01_ages_16":"16","01_ages_17":"17","01_ages_18":"18","02":"Yes","02_ages_1":"1","02_ages_2":"2","02_ages_3":"3","02_ages_4":"4","02_ages_5":"5","02_ages_6":"6","02_ages_7":"7","02_ages_8":"8","02_ages_9":"9","02_ages_10":"10","02_ages_11":"11","02_ages_12":"12","02_ages_13":"13","02_ages_14":"14","02_ages_15":"15","02_ages_16":"16","02_ages_17":"17","02_ages_18":"18","03":"Yes","03_ages_1":"1","03_ages_2":"2","03_ages_3":"3","03_ages_4":"4","03_ages_5":"5","03_ages_6":"6","03_ages_7":"7","03_ages_8":"8","03_ages_9":"9","03_ages_10":"10","03_ages_11":"11","03_ages_12":"12","03_ages_13":"13","03_ages_14":"14","03_ages_15":"15","03_ages_16":"16","03_ages_17":"17","03_ages_18":"18","04":"Yes","04_ages_1":"1","04_ages_2":"2","04_ages_3":"3","04_ages_4":"4","04_ages_5":"5","04_ages_6":"6","04_ages_7":"7","04_ages_8":"8","04_ages_9":"9","04_ages_10":"10","04_ages_11":"11","04_ages_12":"12","04_ages_13":"13","04_ages_14":"14","04_ages_15":"15","04_ages_16":"16","04_ages_17":"17","04_ages_18":"18"},"rt":71975,"item_order":[0,1,2,3],"radio_events":[5334,26947,43496,57729.00000000012],"checkbox_events":[13123,14915,15423,15921,16387,17318,17803,18333,19436,20276,20807,21368,22141,22679,23234.000000000116,23789,24321,24872,28181.000000000116,28855,29405,29959,30975,31727,32493,33042,33567,34107,34913,35455.00000000012,36025,36826,39547,40237,40853,41402.00000000012,44527.00000000012,45056.00000000012,45558,46074,46844,47351,47840,48350,49404,49943,50451,51058,51775,52489,52979.00000000012,53557,54202,54944,59071,60118,60765,61260,61759,62248,62759,63464,64199,64829,65526,66469,67666,68270,68786,69492,70119,70777.00000000012],"key_events":[],"mouse_events":[5334,13123,13861,14915,15423,15921,16387,16861,17318,17803,18333,18849,19436,20276,20807,21368,22141,22679,23234.000000000116,23789,24321,24872,26947,28181.000000000116,28855,29405,29959,30496,30975,31727,32493,33042,33567,34107,34913,35455.00000000012,36025,36826,39547,40237,40853,41402.00000000012,43496,44527.00000000012,45056.00000000012,45558,46074,46844,47351,47840,48350,48821,49404,49943,50451,51058,51775,52489,52979.00000000012,53557,54202,54944,57729.00000000012,59071,60118,60765,61260,61759,62248,62759,63464,64199,64829,65526,66026,66469,67007,67666,68270,68786,69492,70119,70777.00000000012,71967],"honeypot":0,"survey":"mace","page":9,"trial_type":"survey-mace","trial_index":17,"time_elapsed":618909,"internal_node_id":"0.0-17.0","task_version":"prescreen-v0.3","browser_interactions":0},{"responses":{"01":"No","02":"No","03":"No","04":"No","05":"No","06":"Yes","06_ages_17":"17","07":"Yes","07_ages_1":"1","07_ages_2":"2","07_ages_3":"3","07_ages_4":"4","07_ages_5":"5","07_ages_6":"6","07_ages_7":"7","07_ages_8":"8","07_ages_9":"9","07_ages_10":"10","07_ages_11":"11","07_ages_12":"12","07_ages_13":"13","07_ages_14":"14","07_ages_15":"15","07_ages_16":"16","07_ages_17":"17","07_ages_18":"18","08":"Yes","08_ages_1":"1","08_ages_2":"2","08_ages_3":"3","08_ages_4":"4","08_ages_5":"5","08_ages_6":"6","08_ages_7":"7","08_ages_8":"8","08_ages_9":"9","08_ages_10":"10","08_ages_11":"11","08_ages_12":"12","08_ages_13":"13","08_ages_14":"14","08_ages_15":"15","08_ages_16":"16","08_ages_17":"17","08_ages_18":"18"},"rt":83480,"item_order":[0,1,2,3,4,5,6,7],"radio_events":[31408,33299.00000000012,36394,41305,43829,46406,53218,69889],"checkbox_events":[47421,56652,57302,58021,58608,59150.00000000012,59824,60354,60943.00000000012,61614,62117,62783,63315,63979,64701,65302,65860,66431,67072,70825,72172,72727.00000000012,73584,74303,74798,75280,75819,76834,77388,77967.00000000012,78802,79309,80448.00000000012,81023,81639,82158,82668],"key_events":[],"mouse_events":[31408,33299.00000000012,36394,41305,43829,46406,47421,53218,56652,57302,58021,58608,59150.00000000012,59824,60354,60943.00000000012,61614,62117,62783,63315,63979,64701,65302,65860,66431,67072,69889,70825,72172,72727.00000000012,73584,74303,74798,75280,75819,76834,77388,77967.00000000012,78802,79309,80448.00000000012,81023,81639,82158,82668,83472.00000000012],"honeypot":0,"survey":"mace","page":10,"trial_type":"survey-mace","trial_index":18,"time_elapsed":702398,"internal_node_id":"0.0-18.0","task_version":"prescreen-v0.3","browser_interactions":0,"instructed":0},{"rt":5226,"trial_type":"mental-health-alert","trial_index":19,"time_elapsed":707628,"internal_node_id":"0.0-19.0","task_version":"prescreen-v0.3","interactions":"[]"}]