[{"view_history":[{"page_index":0,"viewing_time":4213.699999988079},{"page_index":1,"viewing_time":2952.5},{"page_index":2,"viewing_time":3266},{"page_index":3,"viewing_time":1304.1000000238419}],"rt":11737.5,"trial_type":"instructions","trial_index":0,"time_elapsed":11743,"internal_node_id":"0.0-0.0","task_version":"prescreen-v0.3"},{"rt":14060.399999976158,"responses":{"age":"48","gender-categorical":"Male","gender-free-response":"","ethnicity":"Not Hispanic or Latino","race":["White"],"education":"Some college","siblings":"1"},"trial_type":"survey-demo","trial_index":1,"time_elapsed":25812,"internal_node_id":"0.0-1.0","task_version":"prescreen-v0.3"},{"responses":{"Q16":"0","Q10":"0","Q09":"0","Q15":"0","Q20":"0","Q01":"0","Q04":"0","Q11":"0","Q08":"0","Q05":"2","Q17":"0","Q07":"1","Q06":"0","Q03":"0","Q02":"0","Q18":"0","Q12":"0","Q21":"3","Q13":"0","Q19":"0","Q14":"0"},"rt":96141.30000001192,"item_order":[15,9,8,14,19,0,3,10,7,4,16,6,5,2,1,17,11,20,12,18,13],"radio_events":[10018.200000047684,14032.100000023842,17905.600000023842,21670.900000035763,23192.100000023842,26136.100000023842,29609.80000001192,33476.5,36202.200000047684,47543,52070.5,60412.80000001192,65354.700000047684,68322.70000004768,71000.5,74896.5,78504.20000004768,84040.30000001192,88812.10000002384,92320.60000002384,95287.10000002384],"key_events":[],"mouse_events":[10018.200000047684,14032.100000023842,17905.600000023842,21670.900000035763,23192.100000023842,26136.100000023842,29609.80000001192,33476.5,36202.200000047684,47543,52070.5,60412.80000001192,65354.700000047684,68322.70000004768,71000.5,74265.30000001192,74896.5,78504.20000004768,84040.30000001192,88812.10000002384,92320.60000002384,95287.10000002384,96137],"straightlining":0.8571428571428571,"zigzagging":0.2,"honeypot":0,"survey":"sns","trial_type":"survey-template","trial_index":2,"time_elapsed":121963,"internal_node_id":"0.0-2.0","task_version":"prescreen-v0.3","browser_interactions":0,"infrequency":0},{"responses":{"Q09":"2","Q07":"3","Q05":"3","Q11":"3","Q12":"2","Q13":"0","Q01":"2","Q04":"2","Q06":"3","Q03":"1","Q08":"2","Q02":"2","Q10":"2"},"rt":59341.5,"item_order":[8,6,4,10,11,12,0,3,5,2,7,1,9],"radio_events":[4016.5,7616.599999964237,9912.300000011921,14676.300000011921,18823,22180.5,27874.599999964237,33029.5,39891.89999997616,46219.09999996424,52574.19999998808,55800.89999997616,58532.69999998808],"key_events":[],"mouse_events":[4016.5,7616.599999964237,9912.300000011921,14676.300000011921,18065.5,18823,21533,22180.5,27874.599999964237,33029.5,36925.89999997616,37956.80000001192,38785.39999997616,39891.89999997616,46219.09999996424,51997.5,52574.19999998808,55800.89999997616,58532.69999998808,59339.39999997616],"straightlining":0.5384615384615384,"zigzagging":0.3333333333333333,"honeypot":0,"survey":"bisbas","trial_type":"survey-template","trial_index":3,"time_elapsed":181311,"internal_node_id":"0.0-3.0","task_version":"prescreen-v0.3","browser_interactions":0,"infrequency":0},{"responses":{"Q01":"3","Q02":"2","Q03":"3"},"rt":18947.30000001192,"radio_events":[7808.800000011921,11627.800000011921,12650.399999976158,18368.30000001192],"key_events":[],"mouse_events":[7808.800000011921,11627.800000011921,12650.399999976158,18000.69999998808,18368.30000001192,18946.30000001192],"survey":"map","page":1,"trial_type":"survey-map","trial_index":4,"time_elapsed":200264,"internal_node_id":"0.0-4.0","task_version":"prescreen-v0.3","browser_interactions":0},{"responses":{"Q04":"3","Q05":"3","Q06":"3"},"rt":15996.700000047684,"radio_events":[5359.5,6795.5,10701.400000035763,15370.400000035763],"key_events":[],"mouse_events":[5359.5,6795.5,10701.400000035763,15370.400000035763,15995.700000047684],"survey":"map","page":2,"trial_type":"survey-map","trial_index":5,"time_elapsed":216263,"internal_node_id":"0.0-5.0","task_version":"prescreen-v0.3","browser_interactions":0},{"responses":{"Q07":"4","Q08":"4","Q09":"3"},"rt":36544.60000002384,"radio_events":[29740.600000023842,32834.200000047684,35925.80000001192],"key_events":[],"mouse_events":[29740.600000023842,32834.200000047684,35925.80000001192,36543.60000002384],"survey":"map","page":3,"trial_type":"survey-map","trial_index":6,"time_elapsed":252811,"internal_node_id":"0.0-6.0","task_version":"prescreen-v0.3","browser_interactions":2},{"responses":{"Q10":"3","Q11":"3","Q12":"4","Q13":"4","Q16":"0","Q14":"4","Q15":"4"},"rt":33015.89999997616,"radio_events":[4689.899999976158,8048.399999976158,11545.599999964237,13469,18130.399999976158,21862.299999952316,27298.399999976158,32523.19999998808],"key_events":[],"mouse_events":[4689.899999976158,8048.399999976158,11545.599999964237,13469,18130.399999976158,21862.299999952316,25978.399999976158,27298.399999976158,32523.19999998808,33014.19999998808],"survey":"map","page":4,"trial_type":"survey-map","trial_index":7,"time_elapsed":285831,"internal_node_id":"0.0-7.0","task_version":"prescreen-v0.3","browser_interactions":0,"infrequency":0},{"view_history":[{"page_index":0,"viewing_time":2961.100000023842},{"page_index":1,"viewing_time":5817.899999976158}],"rt":8780.300000011921,"trial_type":"instructions","trial_index":8,"time_elapsed":294613,"internal_node_id":"0.0-8.0","task_version":"prescreen-v0.3"},{"responses":{"01":"No","02":"No","03":"No","04":"No","05":"No","06":"Yes","06_ages_1":"1"},"rt":36459.60000002384,"item_order":[0,1,2,3,4,5],"radio_events":[8563.600000023842,11700.699999988079,14013.5,15370,17551.30000001192,24875.100000023842],"checkbox_events":[30629.899999976158],"key_events":[],"mouse_events":[0.19999998807907104,8563.600000023842,11700.699999988079,14013.5,15370,17551.30000001192,24875.100000023842,30629.899999976158,36455.19999998808],"honeypot":0,"survey":"mace","page":1,"trial_type":"survey-mace","trial_index":9,"time_elapsed":331085,"internal_node_id":"0.0-9.0","task_version":"prescreen-v0.3","browser_interactions":0},{"responses":{"01":"No","02":"No","03":"Yes","03_ages_4":"4","03_ages_5":"5","03_ages_6":"6","03_ages_7":"7","03_ages_8":"8","04":"No","05":"Yes","05_ages_5":"5","05_ages_6":"6","05_ages_7":"7","05_ages_8":"8","06":"No","07":"No","08":"No"},"rt":39332.09999996424,"item_order":[0,1,2,3,4,5,6,7],"radio_events":[2704.800000011921,4572.300000011921,6906.199999988079,21554.5,23866.80000001192,26552.399999976158,35892.80000001192,37040,38718.80000001192],"checkbox_events":[13941,14448.199999988079,14932.800000011921,15978.699999988079,17806.30000001192,29794.599999964237,30722.899999976158,31411.399999976158,32059.5],"key_events":[],"mouse_events":[2704.800000011921,4572.300000011921,6906.199999988079,13941,14448.199999988079,14932.800000011921,15978.699999988079,17806.30000001192,21554.5,23866.80000001192,26552.399999976158,29794.599999964237,30223,30722.899999976158,31411.399999976158,32059.5,35892.80000001192,37040,38718.80000001192,39325.80000001192],"honeypot":0,"survey":"mace","page":2,"trial_type":"survey-mace","trial_index":10,"time_elapsed":370425,"internal_node_id":"0.0-10.0","task_version":"prescreen-v0.3","browser_interactions":0},{"responses":{"01":"No","02":"No","03":"No","04":"No"},"rt":9792.399999976158,"item_order":[0,1,2,3],"radio_events":[3417.300000011921,6307.199999988079,7883.399999976158,9164],"checkbox_events":[],"key_events":[],"mouse_events":[3417.300000011921,6307.199999988079,7883.399999976158,9164,9789.399999976158],"honeypot":0,"survey":"mace","page":3,"trial_type":"survey-mace","trial_index":11,"time_elapsed":380223,"internal_node_id":"0.0-11.0","task_version":"prescreen-v0.3","browser_interactions":0},{"responses":{"01":"No","02":"No"},"rt":4685.699999988079,"item_order":[0,1],"radio_events":[2919.199999988079,4121.599999964237],"checkbox_events":[],"key_events":[],"mouse_events":[2919.199999988079,4121.599999964237,4684],"honeypot":0,"survey":"mace","page":4,"trial_type":"survey-mace","trial_index":12,"time_elapsed":384913,"internal_node_id":"0.0-12.0","task_version":"prescreen-v0.3","browser_interactions":0},{"responses":{"01":"No","02":"No","03":"No","04":"No","05":"No"},"rt":11500.199999988079,"item_order":[0,1,2,3,4],"radio_events":[3688.800000011921,7200.5,8941.800000011921,9769.699999988079,10753.600000023842],"checkbox_events":[],"key_events":[],"mouse_events":[3688.800000011921,7200.5,8941.800000011921,9769.699999988079,10753.600000023842,11496.100000023842],"honeypot":0,"survey":"mace","page":5,"trial_type":"survey-mace","trial_index":13,"time_elapsed":396418,"internal_node_id":"0.0-13.0","task_version":"prescreen-v0.3","browser_interactions":0},{"responses":{"01":"No","02":"No","03":"No","04":"No","05":"No"},"rt":20838.400000035763,"item_order":[0,1,2,3,4],"radio_events":[11243.700000047684,13017.800000011921,15695.700000047684,17889.900000035763,20411.700000047684],"checkbox_events":[],"key_events":[],"mouse_events":[11243.700000047684,13017.800000011921,15695.700000047684,17889.900000035763,20411.700000047684,20834.400000035763],"honeypot":0,"survey":"mace","page":6,"trial_type":"survey-mace","trial_index":14,"time_elapsed":417261,"internal_node_id":"0.0-14.0","task_version":"prescreen-v0.3","browser_interactions":0},{"responses":{"01":"No","02":"No","03":"Yes","03_ages_13":"13","03_ages_14":"14","03_ages_15":"15","03_ages_16":"16","04":"No","05":"No","06":"No","07":"No"},"rt":31414.30000001192,"item_order":[0,1,2,3,4,5,6],"radio_events":[3808.300000011921,5063.600000023842,6360,13581.800000011921,26414,28667.600000023842,30198,30861.30000001192],"checkbox_events":[18547.900000035763,19031.19999998808,19462.5,20711.69999998808],"key_events":[],"mouse_events":[3808.300000011921,5063.600000023842,6360,13581.800000011921,18547.900000035763,19031.19999998808,19462.5,19860.100000023842,20711.69999998808,26414,28667.600000023842,30198,30861.30000001192,31408],"honeypot":0,"survey":"mace","page":7,"trial_type":"survey-mace","trial_index":15,"time_elapsed":448681,"internal_node_id":"0.0-15.0","task_version":"prescreen-v0.3","browser_interactions":0},{"responses":{"01":"No","02":"No","03":"No","04":"No"},"rt":14779.400000035763,"item_order":[0,1,2,3],"radio_events":[5446.5,7662.5,11184.5,14260.300000011921],"checkbox_events":[],"key_events":[],"mouse_events":[5446.5,7662.5,11184.5,14260.300000011921,14776.300000011921],"honeypot":0,"survey":"mace","page":8,"trial_type":"survey-mace","trial_index":16,"time_elapsed":463465,"internal_node_id":"0.0-16.0","task_version":"prescreen-v0.3","browser_interactions":0},{"responses":{"01":"Yes","01_ages_1":"1","01_ages_2":"2","01_ages_3":"3","01_ages_4":"4","01_ages_5":"5","01_ages_6":"6","01_ages_7":"7","01_ages_8":"8","01_ages_9":"9","01_ages_10":"10","01_ages_11":"11","01_ages_12":"12","01_ages_13":"13","01_ages_14":"14","01_ages_15":"15","01_ages_16":"16","01_ages_17":"17","01_ages_18":"18","02":"Yes","02_ages_1":"1","02_ages_2":"2","02_ages_3":"3","02_ages_4":"4","02_ages_5":"5","02_ages_6":"6","02_ages_7":"7","02_ages_8":"8","02_ages_9":"9","02_ages_10":"10","02_ages_11":"11","02_ages_12":"12","02_ages_13":"13","02_ages_14":"14","02_ages_15":"15","02_ages_16":"16","02_ages_17":"17","02_ages_18":"18","03":"Yes","03_ages_1":"1","03_ages_2":"2","03_ages_3":"3","03_ages_4":"4","03_ages_5":"5","03_ages_6":"6","03_ages_7":"7","03_ages_8":"8","03_ages_9":"9","03_ages_10":"10","03_ages_11":"11","03_ages_12":"12","03_ages_13":"13","03_ages_14":"14","03_ages_15":"15","03_ages_16":"16","03_ages_17":"17","03_ages_18":"18","04":"Yes","04_ages_1":"1","04_ages_2":"2","04_ages_3":"3","04_ages_4":"4","04_ages_5":"5","04_ages_6":"6","04_ages_7":"7","04_ages_8":"8","04_ages_9":"9","04_ages_10":"10","04_ages_11":"11","04_ages_12":"12","04_ages_13":"13","04_ages_14":"14","04_ages_15":"15","04_ages_16":"16","04_ages_17":"17","04_ages_18":"18"},"rt":77389,"item_order":[0,1,2,3],"radio_events":[4340.700000047684,28952.600000023842,48097.10000002384,51726.5],"checkbox_events":[13919.800000011921,14366.600000023842,14982.800000011921,15498.800000011921,15920.700000047684,16342.5,16717.100000023842,17097.900000035763,17496.30000001192,17880.30000001192,18192.400000035763,18700.80000001192,19160.700000047684,19698.900000035763,20083.100000023842,20497,21019.100000023842,21830.400000035763,30069.30000001192,30496.5,30950.30000001192,31348.600000023842,31988.700000047684,32542.700000047684,33809,36245,36775.40000003576,38165.30000001192,38664.80000001192,39650.10000002384,40170.200000047684,40718.90000003576,41289.200000047684,42039,42639.5,43200.700000047684,52710.80000001192,53563.10000002384,54227.30000001192,54975.30000001192,55475.200000047684,56302.700000047684,57108.40000003576,58599.5,59028.5,59591.30000001192,60121.40000003576,60653.200000047684,61814.60000002384,63089,63602.700000047684,64134.40000003576,64649.700000047684,65040.80000001192,65931.10000002384,66445,66968.80000001192,67600.90000003576,68219.80000001192,68757.40000003576,69514.40000003576,70357,70833,71316.80000001192,72106.5,72841,73691,74191.30000001192,74863,75642.40000003576,76134.70000004768,76909],"key_events":[],"mouse_events":[4340.700000047684,13919.800000011921,14366.600000023842,14982.800000011921,15498.800000011921,15920.700000047684,16342.5,16717.100000023842,17097.900000035763,17496.30000001192,17880.30000001192,18192.400000035763,18700.80000001192,19160.700000047684,19698.900000035763,20083.100000023842,20497,21019.100000023842,21830.400000035763,28952.600000023842,30069.30000001192,30496.5,30950.30000001192,31348.600000023842,31988.700000047684,32542.700000047684,33026.700000047684,33809,34285.200000047684,36245,36775.40000003576,37526.10000002384,38165.30000001192,38664.80000001192,39650.10000002384,40170.200000047684,40718.90000003576,41289.200000047684,42039,42639.5,43200.700000047684,48097.10000002384,51726.5,52710.80000001192,53563.10000002384,54227.30000001192,54975.30000001192,55475.200000047684,56302.700000047684,57108.40000003576,57911.40000003576,58599.5,59028.5,59591.30000001192,60121.40000003576,60653.200000047684,61260.90000003576,61814.60000002384,63089,63602.700000047684,64134.40000003576,64649.700000047684,65040.80000001192,65931.10000002384,66445,66968.80000001192,67600.90000003576,68219.80000001192,68757.40000003576,69514.40000003576,69865.5,70357,70833,71316.80000001192,72106.5,72841,73691,74191.30000001192,74863,75642.40000003576,76134.70000004768,76909,77385.70000004768],"honeypot":0,"survey":"mace","page":9,"trial_type":"survey-mace","trial_index":17,"time_elapsed":540859,"internal_node_id":"0.0-17.0","task_version":"prescreen-v0.3","browser_interactions":2},{"responses":{"01":"No","02":"No","03":"No","04":"No","05":"No","06":"Yes","06_ages_17":"17","07":"Yes","07_ages_1":"1","07_ages_2":"2","07_ages_3":"3","07_ages_4":"4","07_ages_5":"5","07_ages_6":"6","07_ages_7":"7","07_ages_8":"8","07_ages_9":"9","07_ages_10":"10","07_ages_11":"11","07_ages_12":"12","07_ages_13":"13","07_ages_14":"14","07_ages_15":"15","07_ages_16":"16","07_ages_17":"17","07_ages_18":"18","08":"Yes","08_ages_1":"1","08_ages_2":"2","08_ages_3":"3","08_ages_4":"4","08_ages_5":"5","08_ages_6":"6","08_ages_7":"7","08_ages_8":"8","08_ages_9":"9","08_ages_10":"10","08_ages_11":"11","08_ages_12":"12","08_ages_13":"13","08_ages_14":"14","08_ages_15":"15","08_ages_16":"16","08_ages_17":"17","08_ages_18":"18"},"rt":56528.59999996424,"item_order":[0,1,2,3,4,5,6,7],"radio_events":[6367.599999964237,8045.899999976158,10614.099999964237,12371.699999988079,15259.699999988079,18101.69999998808,25869.80000001192,42000.19999998808],"checkbox_events":[19733.80000001192,28765.80000001192,29297.19999998808,29680.30000001192,30164.69999998808,30617.099999964237,31234.5,31889.80000001192,32467.69999998808,33005.69999998808,33505.30000001192,33951.80000001192,34654.09999996424,35160.09999996424,36065.89999997616,36792.69999998808,37262.30000001192,37689.80000001192,38206,43755.80000001192,44333.39999997616,45059.80000001192,45613.89999997616,46527.69999998808,46996.39999997616,47870.80000001192,48480.19999998808,49222,50072.09999996424,50644.5,51422.5,52500.39999997616,53015.59999996424,54115.80000001192,55037.80000001192,55545.09999996424,56075.69999998808],"key_events":[],"mouse_events":[6367.599999964237,8045.899999976158,10614.099999964237,12371.699999988079,15259.699999988079,18101.69999998808,19733.80000001192,25869.80000001192,28765.80000001192,29297.19999998808,29680.30000001192,30164.69999998808,30617.099999964237,31234.5,31889.80000001192,32467.69999998808,33005.69999998808,33505.30000001192,33951.80000001192,34654.09999996424,35160.09999996424,36065.89999997616,36792.69999998808,37262.30000001192,37689.80000001192,38206,40650.19999998808,42000.19999998808,43755.80000001192,44333.39999997616,45059.80000001192,45613.89999997616,46044.19999998808,46527.69999998808,46996.39999997616,47464.5,47870.80000001192,48480.19999998808,49222,50072.09999996424,50644.5,51422.5,52094.30000001192,52500.39999997616,53015.59999996424,53594.09999996424,54115.80000001192,55037.80000001192,55545.09999996424,56075.69999998808,56521.89999997616],"honeypot":0,"survey":"mace","page":10,"trial_type":"survey-mace","trial_index":18,"time_elapsed":597396,"internal_node_id":"0.0-18.0","task_version":"prescreen-v0.3","browser_interactions":0,"instructed":0},{"rt":7410.899999976158,"trial_type":"mental-health-alert","trial_index":19,"time_elapsed":604810,"internal_node_id":"0.0-19.0","task_version":"prescreen-v0.3","interactions":"[{\"event\":\"blur\",\"trial\":6,\"time\":217210},{\"event\":\"focus\",\"trial\":6,\"time\":245916},{\"event\":\"blur\",\"trial\":17,\"time\":470149},{\"event\":\"focus\",\"trial\":17,\"time\":477318}]"}]