[{"view_history":[{"page_index":0,"viewing_time":11560.80000000447},{"page_index":1,"viewing_time":17548.09999999404},{"page_index":2,"viewing_time":10590.10000000149},{"page_index":3,"viewing_time":3249.2000000029802}],"rt":42949.70000000298,"trial_type":"instructions","trial_index":0,"time_elapsed":42966,"internal_node_id":"0.0-0.0","task_version":"prescreen-v0.3"},{"rt":57458.29999999702,"responses":{"age":"45","gender-categorical":"Male","gender-free-response":"","ethnicity":"Not Hispanic or Latino","race":["Asian"],"education":"Bachelor degree"},"trial_type":"survey-demo","trial_index":1,"time_elapsed":100436,"internal_node_id":"0.0-1.0","task_version":"prescreen-v0.3"},{"responses":{"Q02":"1","Q10":"0","Q01":"1","Q04":"1","Q03":"1","Q07":"1","Q17":"1","Q21":"3","Q06":"1","Q05":"2","Q14":"1","Q19":"1","Q20":"1","Q08":"1","Q09":"1","Q16":"0","Q13":"1","Q18":"0","Q12":"0","Q15":"1","Q11":"2"},"rt":254747.79999999702,"item_order":[1,9,0,3,2,6,16,20,5,4,13,18,19,7,8,15,12,17,11,14,10],"radio_events":[21190,29803.79999999702,34557.79999999702,44017.60000000149,52202.10000000149,64049.10000000149,67502.79999999702,77128.89999999851,88025.60000000149,115485.60000000149,137404.5,149193,174953.20000000298,179055.6000000015,189544.70000000298,198193.79999999702,199877.79999999702,204873.5,212294.70000000298,215227.1000000015,224340.70000000298,243986.3999999985,253120],"key_events":[],"mouse_events":[21190,29803.79999999702,34557.79999999702,44017.60000000149,52202.10000000149,64049.10000000149,67502.79999999702,77128.89999999851,88025.60000000149,115485.60000000149,137404.5,149193,151009.3999999985,174953.20000000298,179055.6000000015,179930.6000000015,189544.70000000298,198193.79999999702,199877.79999999702,204873.5,212294.70000000298,215227.1000000015,224340.70000000298,243986.3999999985,244927.1000000015,246303.6000000015,253120,254743.79999999702],"straightlining":0.6666666666666666,"zigzagging":0.45,"honeypot":0,"survey":"sns","trial_type":"survey-template","trial_index":2,"time_elapsed":355191,"internal_node_id":"0.0-2.0","task_version":"prescreen-v0.3","browser_interactions":0,"infrequency":0},{"responses":{"Q07":"2","Q13":"0","Q11":"3","Q12":"2","Q08":"3","Q01":"1","Q03":"1","Q06":"3","Q10":"2","Q05":"3","Q04":"3","Q02":"3","Q09":"2"},"rt":185355,"item_order":[6,12,10,11,7,0,2,5,9,4,3,1,8],"radio_events":[11593.89999999851,20602.60000000149,37817.60000000149,40433.79999999702,58951.89999999851,84530.19999999553,95055.19999999553,107925.10000000149,127112.10000000149,135225.6000000015,146614.79999999702,161695,170017.8999999985,176277.8999999985,183730],"key_events":[],"mouse_events":[11593.89999999851,20602.60000000149,37817.60000000149,40433.79999999702,58951.89999999851,84530.19999999553,95055.19999999553,107925.10000000149,127112.10000000149,135225.6000000015,146614.79999999702,148478.1000000015,161695,162330.6000000015,170017.8999999985,176277.8999999985,176901.79999999702,183730,185352.69999999553],"straightlining":0.46153846153846156,"zigzagging":0.5,"honeypot":0,"survey":"bisbas","trial_type":"survey-template","trial_index":3,"time_elapsed":540554,"internal_node_id":"0.0-3.0","task_version":"prescreen-v0.3","browser_interactions":0,"infrequency":0},{"responses":{"Q01":"2","Q02":"3","Q03":"3"},"rt":54373.19999999553,"radio_events":[23556.10000000149,31691.29999999702,34453.29999999702,52214.19999999553],"key_events":[],"mouse_events":[23556.10000000149,31691.29999999702,34453.29999999702,35202.19999999553,37322.29999999702,40016.19999999553,52214.19999999553,54372],"survey":"map","page":1,"trial_type":"survey-map","trial_index":4,"time_elapsed":594934,"internal_node_id":"0.0-4.0","task_version":"prescreen-v0.3","browser_interactions":0},{"responses":{"Q04":"3","Q05":"3","Q06":"3"},"rt":23982.5,"radio_events":[14600.60000000149,19655.20000000298,21895.79999999702],"key_events":[],"mouse_events":[14600.60000000149,19655.20000000298,21895.79999999702,23981.5],"survey":"map","page":2,"trial_type":"survey-map","trial_index":5,"time_elapsed":618921,"internal_node_id":"0.0-5.0","task_version":"prescreen-v0.3","browser_interactions":0},{"responses":{"Q07":"2","Q08":"0","Q09":"2"},"rt":34428.39999999851,"radio_events":[13095,21338.5,32606.70000000298],"key_events":[],"mouse_events":[13095,21338.5,24328,32606.70000000298,34427.79999999702],"survey":"map","page":3,"trial_type":"survey-map","trial_index":6,"time_elapsed":653354,"internal_node_id":"0.0-6.0","task_version":"prescreen-v0.3","browser_interactions":0},{"responses":{"Q10":"2","Q11":"2","Q12":"2","Q13":"2","Q16":"0","Q14":"2","Q15":"2"},"rt":113674.69999999553,"radio_events":[20347,35987.89999999851,52324.89999999851,74855.89999999851,87774.79999999702,106962,111464.79999999702],"key_events":[],"mouse_events":[3492.2999999970198,20347,32964.39999999851,35987.89999999851,52324.89999999851,74855.89999999851,87774.79999999702,89533.19999999553,106962,111464.79999999702,113672.69999999553],"survey":"map","page":4,"trial_type":"survey-map","trial_index":7,"time_elapsed":767032,"internal_node_id":"0.0-7.0","task_version":"prescreen-v0.3","browser_interactions":0,"infrequency":0},{"view_history":[{"page_index":0,"viewing_time":5049.19999999553},{"page_index":1,"viewing_time":19308.30000000447}],"rt":24358.19999999553,"trial_type":"instructions","trial_index":8,"time_elapsed":791393,"internal_node_id":"0.0-8.0","task_version":"prescreen-v0.3"},{"responses":{"01":"Yes","01_ages_4":"4","01_ages_5":"5","01_ages_6":"6","01_ages_7":"7","01_ages_8":"8","01_ages_9":"9","01_ages_10":"10","01_ages_11":"11","01_ages_12":"12","01_ages_13":"13","01_ages_14":"14","01_ages_15":"15","01_ages_16":"16","01_ages_17":"17","01_ages_18":"18","02":"Yes","02_ages_10":"10","02_ages_11":"11","02_ages_12":"12","02_ages_13":"13","02_ages_14":"14","02_ages_15":"15","02_ages_16":"16","02_ages_17":"17","02_ages_18":"18","03":"Yes","03_ages_16":"16","03_ages_17":"17","03_ages_18":"18","04":"No","05":"No","06":"No"},"rt":165638.6000000015,"item_order":[0,1,2,3,4,5],"radio_events":[27576.30000000447,94180,127816.70000000298,145744.5,149253.30000000447,164014.6000000015],"checkbox_events":[38724.5,48044.20000000298,49666,50927.80000000447,51816.5,51925.30000000447,52828.39999999851,54447.10000000149,55268.60000000149,56319.30000000447,60020.10000000149,61471.5,62775.20000000298,63663.10000000149,64591.80000000447,65475.30000000447,67027.80000000447,68333.60000000149,74520.20000000298,101077.5,102643.20000000298,104194.60000000149,105140.30000000447,106455.39999999851,108836.10000000149,111087.20000000298,112097.30000000447,113063.89999999851,114555.80000000447,115740.30000000447,116997.80000000447,118000.30000000447,132240.6000000015,133001,134930],"key_events":[],"mouse_events":[0.3999999985098839,27576.30000000447,38724.5,48044.20000000298,49351.70000000298,49666,50927.80000000447,51816.5,51925.30000000447,52828.39999999851,54447.10000000149,55268.60000000149,56319.30000000447,60020.10000000149,61471.5,62775.20000000298,63663.10000000149,64591.80000000447,65475.30000000447,67027.80000000447,68333.60000000149,74520.20000000298,75548.20000000298,94180,101077.5,102643.20000000298,104194.60000000149,105140.30000000447,106455.39999999851,108836.10000000149,111087.20000000298,112097.30000000447,113063.89999999851,114555.80000000447,115740.30000000447,116997.80000000447,118000.30000000447,118935.89999999851,120428.30000000447,127816.70000000298,132240.6000000015,133001,134930,136441.20000000298,137564.6000000015,145744.5,149253.30000000447,164014.6000000015,165633.30000000447],"honeypot":0,"survey":"mace","page":1,"trial_type":"survey-mace","trial_index":9,"time_elapsed":957044,"internal_node_id":"0.0-9.0","task_version":"prescreen-v0.3","browser_interactions":0},{"responses":{"01":"Yes","01_ages_7":"7","01_ages_8":"8","01_ages_9":"9","01_ages_10":"10","01_ages_11":"11","01_ages_12":"12","01_ages_13":"13","01_ages_14":"14","02":"No","03":"No","04":"No","05":"Yes","05_ages_7":"7","05_ages_8":"8","05_ages_9":"9","05_ages_10":"10","05_ages_11":"11","05_ages_12":"12","05_ages_13":"13","05_ages_14":"14","05_ages_15":"15","05_ages_16":"16","06":"No","07":"No","08":"No"},"rt":110868.80000000447,"item_order":[0,1,2,3,4,5,6,7],"radio_events":[24971.30000000447,46603.60000000149,59775.20000000298,64800,76050.40000000596,95915,105469.20000000298,108926.10000000149],"checkbox_events":[30091.70000000298,31414.30000000447,32348.30000000447,33161.70000000298,33985.70000000298,35038.90000000596,36843.80000000447,37726,80368.90000000596,81051.70000000298,81808,82483.60000000149,85260.5,86134.70000000298,87132.10000000149,88373.20000000298,89628,91751.40000000596],"key_events":[],"mouse_events":[14883.60000000149,24971.30000000447,30091.70000000298,31414.30000000447,32348.30000000447,33161.70000000298,33985.70000000298,35038.90000000596,36843.80000000447,37726,46603.60000000149,59775.20000000298,64800,66555.80000000447,76050.40000000596,80368.90000000596,81051.70000000298,81808,82483.60000000149,85260.5,86134.70000000298,87132.10000000149,88373.20000000298,89628,91751.40000000596,93416.10000000149,95915,97226.60000000149,105469.20000000298,108926.10000000149,110864.60000000149],"honeypot":0,"survey":"mace","page":2,"trial_type":"survey-mace","trial_index":10,"time_elapsed":1067921,"internal_node_id":"0.0-10.0","task_version":"prescreen-v0.3","browser_interactions":0},{"responses":{"01":"No","02":"No","03":"No","04":"No"},"rt":40493.60000000149,"item_order":[0,1,2,3],"radio_events":[25344.80000000447,30534.60000000149,34904.5,38180.5],"checkbox_events":[],"key_events":[],"mouse_events":[25344.80000000447,30534.60000000149,34904.5,38180.5,40489.80000000447],"honeypot":0,"survey":"mace","page":3,"trial_type":"survey-mace","trial_index":11,"time_elapsed":1108420,"internal_node_id":"0.0-11.0","task_version":"prescreen-v0.3","browser_interactions":0},{"responses":{"01":"No","02":"No"},"rt":14261.90000000596,"item_order":[0,1],"radio_events":[3931.5,11380.60000000149],"checkbox_events":[],"key_events":[],"mouse_events":[3931.5,11380.60000000149,14259.80000000447],"honeypot":0,"survey":"mace","page":4,"trial_type":"survey-mace","trial_index":12,"time_elapsed":1122686,"internal_node_id":"0.0-12.0","task_version":"prescreen-v0.3","browser_interactions":0},{"responses":{"01":"Yes","01_ages_7":"7","01_ages_8":"8","01_ages_9":"9","01_ages_10":"10","01_ages_11":"11","01_ages_12":"12","01_ages_13":"13","01_ages_14":"14","01_ages_15":"15","02":"No","03":"No","04":"No","05":"No"},"rt":99620.89999999851,"item_order":[0,1,2,3,4],"radio_events":[34787.39999999851,65934.19999999553,80023.59999999404,87041.59999999404,96907.29999999702],"checkbox_events":[42727,43475.39999999851,44161.89999999851,45156.19999999553,51046.79999999702,52421.09999999404,53112.09999999404,55483.59999999404,58316.69999999553],"key_events":[],"mouse_events":[3870.5,34787.39999999851,42727,43475.39999999851,44161.89999999851,45156.19999999553,51046.79999999702,52107.79999999702,52421.09999999404,53112.09999999404,55483.59999999404,58316.69999999553,59187,65934.19999999553,80023.59999999404,81030.09999999404,87041.59999999404,96907.29999999702,99616.29999999702],"honeypot":0,"survey":"mace","page":5,"trial_type":"survey-mace","trial_index":13,"time_elapsed":1222313,"internal_node_id":"0.0-13.0","task_version":"prescreen-v0.3","browser_interactions":0},{"responses":{"01":"Yes","01_ages_7":"7","01_ages_8":"8","01_ages_9":"9","01_ages_10":"10","01_ages_11":"11","01_ages_12":"12","01_ages_13":"13","01_ages_14":"14","01_ages_15":"15","01_ages_16":"16","01_ages_17":"17","02":"Yes","02_ages_7":"7","02_ages_8":"8","02_ages_9":"9","02_ages_10":"10","02_ages_11":"11","02_ages_12":"12","02_ages_13":"13","02_ages_14":"14","02_ages_15":"15","02_ages_16":"16","02_ages_17":"17","03":"Yes","03_ages_9":"9","03_ages_10":"10","03_ages_11":"11","03_ages_12":"12","03_ages_13":"13","03_ages_14":"14","03_ages_15":"15","03_ages_16":"16","03_ages_17":"17","03_ages_18":"18","04":"Yes","04_ages_7":"7","04_ages_8":"8","04_ages_9":"9","04_ages_10":"10","04_ages_11":"11","04_ages_12":"12","04_ages_13":"13","04_ages_14":"14","04_ages_15":"15","05":"No"},"rt":122060.39999999851,"item_order":[0,1,2,3,4],"radio_events":[20722,54600.10000000149,79120.39999999851,95900.70000000298,120152.70000000298],"checkbox_events":[26032.89999999851,27651.39999999851,28349.10000000149,29099.39999999851,31091.89999999851,32909.5,34034,39349.5,41468.39999999851,42280.89999999851,43476.89999999851,57729,58615.10000000149,59549.30000000447,60425.39999999851,61173.80000000447,61800.70000000298,62482.60000000149,63239.20000000298,64171.30000000447,65233.20000000298,65995.10000000149,82946.10000000149,83747.39999999851,84558.30000000447,85369.5,86147.39999999851,86832.5,87648.20000000298,88395.39999999851,89268.39999999851,90212.89999999851,104527.80000000447,105968.39999999851,106595.10000000149,107292.89999999851,110158,111602.39999999851,112296.80000000447,113094.5,113851.60000000149],"key_events":[],"mouse_events":[9334.70000000298,20722,26032.89999999851,27338.39999999851,27651.39999999851,28349.10000000149,29099.39999999851,31091.89999999851,32909.5,34034,39038.10000000149,39349.5,41468.39999999851,42280.89999999851,43476.89999999851,54600.10000000149,57729,58615.10000000149,59549.30000000447,60425.39999999851,61173.80000000447,61800.70000000298,62482.60000000149,63239.20000000298,64171.30000000447,65233.20000000298,65995.10000000149,79120.39999999851,82946.10000000149,83747.39999999851,84558.30000000447,85369.5,86147.39999999851,86832.5,87648.20000000298,88395.39999999851,89268.39999999851,90212.89999999851,91878.60000000149,95900.70000000298,98341.80000000447,104527.80000000447,105658.30000000447,105968.39999999851,106595.10000000149,107292.89999999851,110158,111602.39999999851,112296.80000000447,113094.5,113851.60000000149,120152.70000000298,122055.80000000447],"honeypot":0,"survey":"mace","page":6,"trial_type":"survey-mace","trial_index":14,"time_elapsed":1344381,"internal_node_id":"0.0-14.0","task_version":"prescreen-v0.3","browser_interactions":0},{"responses":{"01":"No","02":"Yes","02_ages_9":"9","02_ages_10":"10","03":"Yes","03_ages_7":"7","03_ages_8":"8","03_ages_9":"9","03_ages_10":"10","03_ages_11":"11","03_ages_12":"12","03_ages_13":"13","03_ages_14":"14","03_ages_15":"15","04":"Yes","04_ages_7":"7","04_ages_8":"8","04_ages_9":"9","04_ages_10":"10","04_ages_11":"11","04_ages_12":"12","04_ages_13":"13","04_ages_14":"14","04_ages_15":"15","05":"No","06":"No","07":"No"},"rt":90720.60000000149,"item_order":[0,1,2,3,4,5,6],"radio_events":[6514.10000000149,19796,38056.89999999851,54821,80033.30000000447,84843.80000000447,88146.10000000149],"checkbox_events":[26495,27769.10000000149,41203.10000000149,42572.10000000149,43518.89999999851,44514.5,45388.60000000149,46136.70000000298,46951.80000000447,47761.70000000298,49071.89999999851,58261.89999999851,59823.70000000298,60631.39999999851,61469.20000000298,63716,64653.39999999851,66648.5,67339.70000000298,69212.5],"key_events":[],"mouse_events":[6514.10000000149,19796,26495,27769.10000000149,29822,38056.89999999851,41203.10000000149,42257.30000000447,42572.10000000149,43518.89999999851,44514.5,45388.60000000149,46136.70000000298,46951.80000000447,47761.70000000298,49071.89999999851,54821,58261.89999999851,59449.39999999851,59823.70000000298,60631.39999999851,61469.20000000298,62655.20000000298,63339.60000000149,63716,64653.39999999851,66648.5,67339.70000000298,69212.5,70332.20000000298,80033.30000000447,84843.80000000447,88146.10000000149,90714.30000000447],"honeypot":0,"survey":"mace","page":7,"trial_type":"survey-mace","trial_index":15,"time_elapsed":1435111,"internal_node_id":"0.0-15.0","task_version":"prescreen-v0.3","browser_interactions":0},{"responses":{"01":"Yes","01_ages_5":"5","01_ages_6":"6","01_ages_7":"7","01_ages_8":"8","01_ages_9":"9","01_ages_10":"10","01_ages_11":"11","01_ages_12":"12","01_ages_13":"13","01_ages_14":"14","01_ages_15":"15","01_ages_16":"16","01_ages_17":"17","01_ages_18":"18","02":"Yes","02_ages_3":"3","02_ages_4":"4","02_ages_5":"5","02_ages_6":"6","02_ages_7":"7","02_ages_8":"8","02_ages_9":"9","02_ages_10":"10","02_ages_11":"11","02_ages_12":"12","02_ages_13":"13","02_ages_14":"14","02_ages_15":"15","02_ages_16":"16","02_ages_17":"17","02_ages_18":"18","03":"Yes","03_ages_6":"6","03_ages_7":"7","03_ages_8":"8","03_ages_9":"9","03_ages_10":"10","03_ages_11":"11","03_ages_12":"12","03_ages_13":"13","03_ages_14":"14","03_ages_15":"15","03_ages_16":"16","03_ages_17":"17","03_ages_18":"18","04":"Yes","04_ages_4":"4","04_ages_5":"5","04_ages_6":"6","04_ages_7":"7","04_ages_8":"8","04_ages_9":"9","04_ages_10":"10","04_ages_11":"11","04_ages_12":"12","04_ages_13":"13","04_ages_14":"14","04_ages_15":"15","04_ages_16":"16","04_ages_17":"17","04_ages_18":"18"},"rt":152035.80000000447,"item_order":[0,1,2,3],"radio_events":[32197,60806.70000000298,94730.80000000447,122305.40000000596],"checkbox_events":[38698.80000000447,39413.5,40102.80000000447,40783.20000000298,41405.90000000596,42276.5,42966.40000000596,44242.30000000447,44921.90000000596,45668.5,46419.30000000447,47164.10000000149,47925.5,49853.70000000298,65495.40000000596,66258.70000000298,67615.90000000596,68364.80000000447,69424.5,70176,70858.40000000596,71544.5,72304.5,73061.10000000149,73800,74620.30000000447,77919.20000000298,79232.20000000298,79977.10000000149,81486.70000000298,101705.70000000298,103146.5,103835.90000000596,104726.10000000149,105973.60000000149,106971.70000000298,107780.10000000149,108725.20000000298,109476.60000000149,110412.60000000149,111222.70000000298,112034,113156,131312.70000000298,132125,132818.6000000015,134494,135998.90000000596,136936.6000000015,137807.20000000298,138569.1000000015,139517.40000000596,140388.30000000447,141074.30000000447,143534.30000000447,145465.6000000015,146603.20000000298,147666.30000000447],"key_events":[],"mouse_events":[32197,38384.70000000298,38698.80000000447,39413.5,40102.80000000447,40783.20000000298,41405.90000000596,42276.5,42966.40000000596,43928,44242.30000000447,44921.90000000596,45668.5,46419.30000000447,47164.10000000149,47925.5,49853.70000000298,52525.10000000149,60806.70000000298,64510.40000000596,65181.60000000149,65495.40000000596,66258.70000000298,67303.90000000596,67615.90000000596,68364.80000000447,69424.5,70176,70858.40000000596,71544.5,72304.5,73061.10000000149,73800,74620.30000000447,77919.20000000298,79232.20000000298,79977.10000000149,81486.70000000298,83880.5,94730.80000000447,101705.70000000298,103146.5,103835.90000000596,104726.10000000149,105973.60000000149,106971.70000000298,107780.10000000149,108725.20000000298,109476.60000000149,110412.60000000149,111222.70000000298,112034,113156,114678.30000000447,122305.40000000596,124674.20000000298,130310.70000000298,131062.70000000298,131312.70000000298,132125,132818.6000000015,134494,135998.90000000596,136936.6000000015,137807.20000000298,138569.1000000015,139517.40000000596,140388.30000000447,141074.30000000447,141963.90000000596,143534.30000000447,145465.6000000015,146603.20000000298,147666.30000000447,149092.6000000015,152032.1000000015],"honeypot":0,"survey":"mace","page":8,"trial_type":"survey-mace","trial_index":16,"time_elapsed":1587154,"internal_node_id":"0.0-16.0","task_version":"prescreen-v0.3","browser_interactions":0},{"responses":{"01":"Yes","01_ages_1":"1","01_ages_2":"2","01_ages_3":"3","01_ages_4":"4","01_ages_5":"5","01_ages_6":"6","01_ages_8":"8","01_ages_9":"9","01_ages_10":"10","01_ages_11":"11","01_ages_12":"12","01_ages_13":"13","01_ages_14":"14","01_ages_15":"15","01_ages_16":"16","01_ages_17":"17","01_ages_18":"18","02":"Yes","02_ages_1":"1","02_ages_2":"2","02_ages_3":"3","02_ages_4":"4","02_ages_5":"5","02_ages_6":"6","02_ages_7":"7","02_ages_8":"8","02_ages_9":"9","02_ages_10":"10","02_ages_11":"11","02_ages_12":"12","02_ages_13":"13","02_ages_14":"14","02_ages_15":"15","02_ages_16":"16","02_ages_17":"17","02_ages_18":"18","03":"No","04":"No"},"rt":115510.89999999851,"item_order":[0,1,2,3],"radio_events":[14930,42891.10000000149,88097.5,113656.79999999702],"checkbox_events":[22112,22863.5,24236.10000000149,28116.79999999702,30051,33831.89999999851,48144.19999999553,49014.19999999553,49718.60000000149,50416.19999999553,51166.19999999553,52094.5,52856.19999999553,53543.89999999851,54286.19999999553,54976,55658.79999999702,57302.10000000149,57886,58692.69999999553,60312.79999999702,61074.10000000149,62131.19999999553,63126.89999999851,66956.79999999702,67826.89999999851,68604.69999999553,69226.39999999851,69970.29999999702,70660,71342.89999999851,72042.39999999851,72728,73411.19999999553,74155.5,74932.10000000149,76240.19999999553,77177.10000000149,78640.10000000149],"key_events":[],"mouse_events":[14930,22112,22863.5,24236.10000000149,28116.79999999702,29114.19999999553,30051,33831.89999999851,42891.10000000149,48144.19999999553,49014.19999999553,49718.60000000149,50416.19999999553,51166.19999999553,52094.5,52856.19999999553,53543.89999999851,54286.19999999553,54976,55658.79999999702,56418.5,57302.10000000149,57886,58692.69999999553,59376.79999999702,60312.79999999702,61074.10000000149,62131.19999999553,63126.89999999851,66956.79999999702,67826.89999999851,68604.69999999553,69226.39999999851,69970.29999999702,70660,71342.89999999851,72042.39999999851,72728,73411.19999999553,74155.5,74932.10000000149,76240.19999999553,77177.10000000149,78640.10000000149,88097.5,91420.79999999702,113656.79999999702,115508.5],"honeypot":0,"survey":"mace","page":9,"trial_type":"survey-mace","trial_index":17,"time_elapsed":1702672,"internal_node_id":"0.0-17.0","task_version":"prescreen-v0.3","browser_interactions":0},{"responses":{"01":"No","02":"No","03":"No","04":"Yes","04_ages_4":"4","04_ages_5":"5","04_ages_6":"6","04_ages_7":"7","04_ages_8":"8","04_ages_9":"9","04_ages_10":"10","04_ages_11":"11","04_ages_12":"12","04_ages_13":"13","04_ages_14":"14","04_ages_15":"15","04_ages_16":"16","04_ages_17":"17","04_ages_18":"18","05":"Yes","05_ages_4":"4","05_ages_5":"5","05_ages_6":"6","05_ages_7":"7","05_ages_8":"8","05_ages_9":"9","05_ages_10":"10","05_ages_11":"11","05_ages_12":"12","05_ages_13":"13","05_ages_14":"14","05_ages_15":"15","05_ages_16":"16","05_ages_17":"17","05_ages_18":"18","06":"Yes","06_ages_17":"17","07":"No","08":"No"},"rt":130646.89999999851,"item_order":[0,1,2,3,4,5,6,7],"radio_events":[14685.79999999702,15624.29999999702,32536.29999999702,38529.5,85301.10000000149,108885.20000000298,124608.10000000149,128898.70000000298],"checkbox_events":[43407.29999999702,44215.29999999702,45415.20000000298,48605.10000000149,49443.89999999851,52445.5,53292.79999999702,54616.60000000149,56423.79999999702,57237.89999999851,58994.70000000298,60175,61236.10000000149,62170.29999999702,65420.89999999851,88684,89548.60000000149,90417.79999999702,91489.10000000149,92438.60000000149,93606.89999999851,94355.20000000298,95115.70000000298,96674.70000000298,97359,98173.79999999702,99490,100244.89999999851,102128.79999999702,103317.10000000149,111546.60000000149],"key_events":[],"mouse_events":[14685.79999999702,15624.29999999702,32536.29999999702,38529.5,42285.5,43035.60000000149,43407.29999999702,44215.29999999702,45415.20000000298,48605.10000000149,49443.89999999851,52445.5,53292.79999999702,54616.60000000149,56423.79999999702,57237.89999999851,58994.70000000298,60175,61236.10000000149,62170.29999999702,65420.89999999851,69808.70000000298,85301.10000000149,88684,89548.60000000149,90417.79999999702,91489.10000000149,92438.60000000149,93606.89999999851,94355.20000000298,95115.70000000298,95873.89999999851,96674.70000000298,97359,98173.79999999702,99177.5,99490,100244.89999999851,102128.79999999702,103317.10000000149,108885.20000000298,111546.60000000149,112167,124608.10000000149,128898.70000000298,130642.60000000149],"honeypot":0,"survey":"mace","page":10,"trial_type":"survey-mace","trial_index":18,"time_elapsed":1833325,"internal_node_id":"0.0-18.0","task_version":"prescreen-v0.3","browser_interactions":0,"instructed":0},{"rt":21258.79999999702,"trial_type":"mental-health-alert","trial_index":19,"time_elapsed":1854587,"internal_node_id":"0.0-19.0","task_version":"prescreen-v0.3","interactions":"[]"}]