[{"view_history":[{"page_index":0,"viewing_time":1724},{"page_index":1,"viewing_time":4118},{"page_index":2,"viewing_time":6419},{"page_index":3,"viewing_time":1073}],"rt":13334,"trial_type":"instructions","trial_index":0,"time_elapsed":13342,"internal_node_id":"0.0-0.0","task_version":"prescreen-v0.3"},{"rt":13059.999999999998,"responses":{"age":"28","gender-categorical":"Female","gender-free-response":"","ethnicity":"Not Hispanic or Latino","race":["White"],"education":"Some college"},"trial_type":"survey-demo","trial_index":1,"time_elapsed":26409,"internal_node_id":"0.0-1.0","task_version":"prescreen-v0.3"},{"responses":{"Q07":"2","Q14":"2","Q19":"1","Q12":"0","Q04":"0","Q20":"2","Q18":"1","Q01":"2","Q05":"0","Q21":"3","Q16":"0","Q08":"1","Q06":"1","Q09":"2","Q13":"1","Q15":"2","Q10":"1","Q11":"1","Q03":"1","Q17":"1","Q02":"1"},"rt":117620,"item_order":[6,13,18,11,3,19,17,0,4,20,15,7,5,8,12,14,9,10,2,16,1],"radio_events":[11575.999999999996,14620.999999999996,19292.999999999996,25524.999999999996,26140.999999999996,32953,35358,39685,43072,47530,52727,53461.000000000015,58191,60400,61659,63524,68361,73001,78025,81470.00000000001,85624,89467.00000000001,92053,112194,116939],"key_events":[],"mouse_events":[11575.999999999996,14620.999999999996,19292.999999999996,23412.999999999996,25524.999999999996,26140.999999999996,32953,35358,39685,43072,47530,52727,53461.000000000015,57564,58191,60400,61659,63524,67798,68361,73001,78025,81470.00000000001,85624,88935,89467.00000000001,92053,112194,116939,117606],"straightlining":0.47619047619047616,"zigzagging":0.55,"honeypot":0,"survey":"sns","trial_type":"survey-template","trial_index":2,"time_elapsed":144034,"internal_node_id":"0.0-2.0","task_version":"prescreen-v0.3","browser_interactions":0,"infrequency":0},{"responses":{"Q12":"3","Q09":"3","Q05":"3","Q04":"3","Q07":"3","Q01":"3","Q08":"3","Q03":"2","Q10":"2","Q02":"1","Q06":"2","Q11":"2","Q13":"0"},"rt":70987,"item_order":[11,8,4,3,6,0,7,2,9,1,5,10,12],"radio_events":[10405,13656.00000000003,33719,38170,38669,41312,43281.00000000003,45182,46240,47083,47904,49985,55528,57992,60031.00000000003,63190,66152,70179],"key_events":[],"mouse_events":[10405,13656.00000000003,28259,29271,32522,33719,36261,36755,38170,38669,41312,43281.00000000003,44619,45182,46240,47083,47904,49985,55528,57992,59637,60031.00000000003,63190,66152,70179,70977],"straightlining":0.5384615384615384,"zigzagging":0.25,"honeypot":0,"survey":"bisbas","trial_type":"survey-template","trial_index":3,"time_elapsed":215024,"internal_node_id":"0.0-3.0","task_version":"prescreen-v0.3","browser_interactions":0,"infrequency":0},{"responses":{"Q01":"3","Q02":"2","Q03":"3"},"rt":15888,"radio_events":[8014,11348,15038],"key_events":[],"mouse_events":[7564,8014,11348,15038,15883],"survey":"map","page":1,"trial_type":"survey-map","trial_index":4,"time_elapsed":230916,"internal_node_id":"0.0-4.0","task_version":"prescreen-v0.3","browser_interactions":0},{"responses":{"Q04":"2","Q05":"2","Q06":"2"},"rt":14349,"radio_events":[4872,10047,11735],"key_events":[],"mouse_events":[4872,10047,11735,12353,12758,14344.00000000003],"survey":"map","page":2,"trial_type":"survey-map","trial_index":5,"time_elapsed":245269,"internal_node_id":"0.0-5.0","task_version":"prescreen-v0.3","browser_interactions":0},{"responses":{"Q07":"4","Q08":"4","Q09":"4"},"rt":45523,"radio_events":[39838,43719,44819],"key_events":[],"mouse_events":[39838,42234,42909,43719,44819,45519],"survey":"map","page":3,"trial_type":"survey-map","trial_index":6,"time_elapsed":290796,"internal_node_id":"0.0-6.0","task_version":"prescreen-v0.3","browser_interactions":0},{"responses":{"Q10":"2","Q11":"2","Q12":"2","Q13":"2","Q16":"0","Q14":"2","Q15":"2"},"rt":32139.00000000006,"radio_events":[8440,10937,15088,17574,24962,29071,31374],"key_events":[],"mouse_events":[7988,8440,10937,15088,17574,24245,24962,29071,31374,32132],"survey":"map","page":4,"trial_type":"survey-map","trial_index":7,"time_elapsed":322939,"internal_node_id":"0.0-7.0","task_version":"prescreen-v0.3","browser_interactions":0,"infrequency":0},{"view_history":[{"page_index":0,"viewing_time":1396.0000000000582},{"page_index":1,"viewing_time":3857.999999999942}],"rt":5254,"trial_type":"instructions","trial_index":8,"time_elapsed":328195,"internal_node_id":"0.0-8.0","task_version":"prescreen-v0.3"},{"responses":{"01":"No","02":"No","03":"No","04":"No","05":"No","06":"No"},"rt":28262,"item_order":[0,1,2,3,4,5],"radio_events":[8161,14135.000000000058,17611.00000000006,20246,23472,24754,25989,27747],"checkbox_events":[],"key_events":[],"mouse_events":[0,249,7103,7542,8161,14135.000000000058,17611.00000000006,20246,23472,24754,25989,27060,27747,28253.00000000006],"honeypot":0,"survey":"mace","page":1,"trial_type":"survey-mace","trial_index":9,"time_elapsed":356466,"internal_node_id":"0.0-9.0","task_version":"prescreen-v0.3","browser_interactions":0},{"responses":{"01":"No","02":"No","03":"No","04":"No","05":"No","06":"No","07":"No","08":"No"},"rt":15474,"item_order":[0,1,2,3,4,5,6,7],"radio_events":[2392,4113,5227,7128.000000000058,11043,11628.000000000058,13405,14261],"checkbox_events":[],"key_events":[],"mouse_events":[2392,4113,5227,6138,7128.000000000058,7957,10053,11043,11628.000000000058,13405,14261,15464],"honeypot":0,"survey":"mace","page":2,"trial_type":"survey-mace","trial_index":10,"time_elapsed":371947,"internal_node_id":"0.0-10.0","task_version":"prescreen-v0.3","browser_interactions":0},{"responses":{"01":"No","02":"No","03":"No","04":"No"},"rt":11082,"item_order":[0,1,2,3],"radio_events":[4551,7094,9433,10581],"checkbox_events":[],"key_events":[],"mouse_events":[4551,7094,9433,10581,11076.000000000058],"honeypot":0,"survey":"mace","page":3,"trial_type":"survey-mace","trial_index":11,"time_elapsed":383034,"internal_node_id":"0.0-11.0","task_version":"prescreen-v0.3","browser_interactions":0},{"responses":{"01":"No","02":"No"},"rt":3910,"item_order":[0,1],"radio_events":[2296,3242],"checkbox_events":[],"key_events":[],"mouse_events":[2296,2891,3242,3905],"honeypot":0,"survey":"mace","page":4,"trial_type":"survey-mace","trial_index":12,"time_elapsed":386948,"internal_node_id":"0.0-12.0","task_version":"prescreen-v0.3","browser_interactions":0},{"responses":{"01":"No","02":"No","03":"No","04":"No","05":"No"},"rt":19252,"item_order":[0,1,2,3,4],"radio_events":[9754,11148,13690,16647,18862],"checkbox_events":[],"key_events":[],"mouse_events":[9754,11148,13690,14410,16120,16647,17580,18525.00000000006,18862,19244],"honeypot":0,"survey":"mace","page":5,"trial_type":"survey-mace","trial_index":13,"time_elapsed":406206,"internal_node_id":"0.0-13.0","task_version":"prescreen-v0.3","browser_interactions":0},{"responses":{"01":"No","02":"No","03":"No","04":"No","05":"No"},"rt":10234.999999999942,"item_order":[0,1,2,3,4],"radio_events":[3217.999999999942,4568.999999999942,5557.999999999942,7291,9056.999999999942],"checkbox_events":[],"key_events":[],"mouse_events":[3217.999999999942,4568.999999999942,5557.999999999942,7291,9056.999999999942,10226.999999999942],"honeypot":0,"survey":"mace","page":6,"trial_type":"survey-mace","trial_index":14,"time_elapsed":416447,"internal_node_id":"0.0-14.0","task_version":"prescreen-v0.3","browser_interactions":0},{"responses":{"01":"No","02":"No","03":"No","04":"No","05":"No","06":"No","07":"No"},"rt":17554,"item_order":[0,1,2,3,4,5,6],"radio_events":[5330,6568,9256,10457,12632,14731,16839],"checkbox_events":[],"key_events":[],"mouse_events":[5330,6568,7737,9256,10457,12632,14731,16107,16839,17547],"honeypot":0,"survey":"mace","page":7,"trial_type":"survey-mace","trial_index":15,"time_elapsed":434008,"internal_node_id":"0.0-15.0","task_version":"prescreen-v0.3","browser_interactions":0},{"responses":{"01":"No","02":"No","03":"No","04":"No"},"rt":15641,"item_order":[0,1,2,3],"radio_events":[6984.000000000058,9233,12035,14644],"checkbox_events":[],"key_events":[],"mouse_events":[6984.000000000058,9233,11359.000000000058,12035,12957,13879,14363,14644,14982,15305,15634],"honeypot":0,"survey":"mace","page":8,"trial_type":"survey-mace","trial_index":16,"time_elapsed":449655,"internal_node_id":"0.0-16.0","task_version":"prescreen-v0.3","browser_interactions":0},{"responses":{"01":"Yes","01_ages_1":"1","01_ages_2":"2","01_ages_3":"3","01_ages_4":"4","01_ages_5":"5","01_ages_6":"6","01_ages_7":"7","01_ages_8":"8","01_ages_9":"9","01_ages_10":"10","01_ages_11":"11","01_ages_12":"12","01_ages_13":"13","01_ages_14":"14","01_ages_15":"15","01_ages_16":"16","01_ages_17":"17","01_ages_18":"18","02":"Yes","02_ages_1":"1","02_ages_2":"2","02_ages_3":"3","02_ages_4":"4","02_ages_5":"5","02_ages_6":"6","02_ages_7":"7","02_ages_8":"8","02_ages_9":"9","02_ages_10":"10","02_ages_11":"11","02_ages_12":"12","02_ages_13":"13","02_ages_14":"14","02_ages_15":"15","02_ages_16":"16","02_ages_17":"17","02_ages_18":"18","03":"Yes","03_ages_1":"1","03_ages_2":"2","03_ages_3":"3","03_ages_4":"4","03_ages_5":"5","03_ages_6":"6","03_ages_7":"7","03_ages_8":"8","03_ages_9":"9","03_ages_10":"10","03_ages_11":"11","03_ages_12":"12","03_ages_13":"13","03_ages_14":"14","03_ages_15":"15","03_ages_16":"16","03_ages_17":"17","03_ages_18":"18","04":"Yes","04_ages_1":"1","04_ages_2":"2","04_ages_3":"3","04_ages_4":"4","04_ages_5":"5","04_ages_6":"6","04_ages_7":"7","04_ages_8":"8","04_ages_9":"9","04_ages_10":"10","04_ages_11":"11","04_ages_12":"12","04_ages_13":"13","04_ages_14":"14","04_ages_15":"15","04_ages_16":"16","04_ages_17":"17","04_ages_18":"18"},"rt":95100,"item_order":[0,1,2,3],"radio_events":[3032,20371,67867,83941],"checkbox_events":[6152,6961.000000000058,8221,8860.000000000058,9545,10209,10944,11720,12467,13261,13719,14353.000000000058,15037,15826,16299,16703,17098.00000000006,17781.00000000006,21732,22291,22699.00000000006,23296,23800.00000000006,24575,25252.00000000006,26908,27886,28651.00000000006,29135,29808,30698,31160,31970,32442.00000000006,33095,33545,69072,69645,70307.00000000006,70759.00000000006,71487,72049,72611,73151,73523.00000000006,73954,74366,74854.00000000012,75293,75686.00000000012,76091,76609.00000000012,77102,77786,84946,85373,86115,86543,86993,87522,88016,88444,89132,89715,90087,90840,91571,92010,92449,93259,93720,94270],"key_events":[],"mouse_events":[3032,6152,6961.000000000058,8221,8860.000000000058,9545,10209,10944,11720,12467,13261,13719,14353.000000000058,15037,15522,15826,16299,16703,17098.00000000006,17781.00000000006,20042,20371,21383,21732,22291,22699.00000000006,23296,23800.00000000006,24575,25252.00000000006,26908,27886,28651.00000000006,29135,29808,30698,31160,31970,32442.00000000006,33095,33545,67867,69072,69645,70307.00000000006,70759.00000000006,71487,72049,72611,73151,73523.00000000006,73954,74366,74854.00000000012,75293,75686.00000000012,76091,76609.00000000012,77102,77786,83527.00000000012,83941,84946,85373,86115,86543,86993,87522,88016,88444,89132,89715,90087,90502,90840,91571,92010,92449,93259,93720,94270,95090],"honeypot":0,"survey":"mace","page":9,"trial_type":"survey-mace","trial_index":17,"time_elapsed":544761,"internal_node_id":"0.0-17.0","task_version":"prescreen-v0.3","browser_interactions":0},{"responses":{"01":"No","02":"No","03":"No","04":"No","05":"No","06":"Yes","06_ages_17":"17","07":"Yes","07_ages_1":"1","07_ages_2":"2","07_ages_3":"3","07_ages_4":"4","07_ages_5":"5","07_ages_6":"6","07_ages_7":"7","07_ages_8":"8","07_ages_9":"9","07_ages_10":"10","07_ages_11":"11","07_ages_12":"12","07_ages_13":"13","07_ages_14":"14","07_ages_15":"15","07_ages_16":"16","07_ages_17":"17","07_ages_18":"18","08":"Yes","08_ages_1":"1","08_ages_2":"2","08_ages_3":"3","08_ages_4":"4","08_ages_5":"5","08_ages_6":"6","08_ages_7":"7","08_ages_8":"8","08_ages_9":"9","08_ages_10":"10","08_ages_11":"11","08_ages_12":"12","08_ages_13":"13","08_ages_14":"14","08_ages_15":"15","08_ages_16":"16","08_ages_17":"17","08_ages_18":"18"},"rt":58259,"item_order":[0,1,2,3,4,5,6,7],"radio_events":[3406,4228.000000000116,7297,10032,14711,16275,23092,41565],"checkbox_events":[18065,27470,28186,28860,29594,30258,31869,32363,32835,33723.00000000012,34387,35104,35760,36277,37132,37670.00000000012,38122.00000000012,38583,39476,43038,43770,44906,45525,45975,46808,49709,50407,51025,51697,52567,53073,53703,54164,54644,55402,56369,57303],"key_events":[],"mouse_events":[3406,4228.000000000116,7297,8690,9714,10032,10999,12135,14711,16275,18065,18547,23092,27470,28186,28860,29594,30258,30719,31069.000000000116,31869,32363,32835,33329.00000000012,33723.00000000012,34387,35104,35760,36277,37132,37670.00000000012,38122.00000000012,38583,39063,39476,41565,43038,43770,44584,44906,45525,45975,46413,46808,49709,50407,51025,51697,52567,53073,53703,54164,54644,55402,56369,57303,57911,58247.00000000012],"honeypot":0,"survey":"mace","page":10,"trial_type":"survey-mace","trial_index":18,"time_elapsed":603026,"internal_node_id":"0.0-18.0","task_version":"prescreen-v0.3","browser_interactions":0,"instructed":0},{"rt":3571,"trial_type":"mental-health-alert","trial_index":19,"time_elapsed":606602,"internal_node_id":"0.0-19.0","task_version":"prescreen-v0.3","interactions":"[]"}]