[{"view_history":[{"page_index":0,"viewing_time":2561.5999999999767},{"page_index":1,"viewing_time":6675.299999999988},{"page_index":2,"viewing_time":5487.900000000023},{"page_index":3,"viewing_time":9472.200000000012}],"rt":24197.599999999977,"trial_type":"instructions","trial_index":0,"time_elapsed":24212,"internal_node_id":"0.0-0.0","task_version":"prescreen-v0.3"},{"rt":15492.5,"responses":{"age":"21","gender-categorical":"Male","gender-free-response":"","ethnicity":"Not Hispanic or Latino","race":["Asian"],"education":"Associate degree","siblings":"2"},"trial_type":"survey-demo","trial_index":1,"time_elapsed":39709,"internal_node_id":"0.0-1.0","task_version":"prescreen-v0.3"},{"responses":{"Q07":"1","Q06":"2","Q12":"2","Q14":"1","Q11":"3","Q19":"1","Q09":"2","Q10":"1","Q21":"3","Q13":"2","Q08":"2","Q04":"1","Q05":"3","Q18":"1","Q17":"1","Q16":"2","Q02":"1","Q20":"1","Q15":"2","Q03":"1","Q01":"2"},"rt":98155.39999999997,"item_order":[6,5,11,13,10,18,8,9,20,12,7,3,4,17,16,15,1,19,14,2,0],"radio_events":[9216.399999999965,14208.399999999965,18545,20888.29999999999,23048.29999999999,26800.399999999965,30448.20000000001,36176.20000000001,40568.20000000001,43216.29999999999,46295,50368.29999999999,54864,55944.20000000001,58432,66312.09999999998,68952.09999999998,71432.89999999997,72560.70000000001,76168.29999999999,83479.99999999994,86543.99999999994],"key_events":[],"mouse_events":[7728.899999999965,7968.099999999977,8184.299999999988,8544,9216.399999999965,13920.299999999988,14208.399999999965,18545,20888.29999999999,23048.29999999999,25872.399999999965,26312.399999999965,26800.399999999965,30136.5,30448.20000000001,35840.5,36176.20000000001,40568.20000000001,42856.09999999998,43216.29999999999,46295,48856.399999999965,49144.09999999998,49944.09999999998,50368.29999999999,54864,55280.20000000001,55552,55944.20000000001,58432,65919.39999999997,66312.09999999998,68952.09999999998,71007.20000000001,71432.89999999997,72288.59999999998,72560.70000000001,75824.39999999997,76168.29999999999,83479.99999999994,85400.79999999999,86287.89999999997,86543.99999999994,98152.49999999994],"straightlining":0.47619047619047616,"zigzagging":0.55,"honeypot":0,"survey":"sns","trial_type":"survey-template","trial_index":2,"time_elapsed":137872,"internal_node_id":"0.0-2.0","task_version":"prescreen-v0.3","browser_interactions":0,"infrequency":0},{"responses":{"Q07":"3","Q09":"1","Q12":"1","Q13":"0","Q11":"1","Q01":"2","Q02":"1","Q06":"3","Q05":"2","Q10":"1","Q04":"2","Q03":"2","Q08":"1"},"rt":53169,"item_order":[6,8,11,12,10,0,1,5,4,9,3,2,7],"radio_events":[5031.5,9055.70000000007,9648,12095.70000000007,16159.600000000093,22831.70000000007,23735.5,25080.100000000093,27839.70000000007,30407.800000000047,30814.800000000047,32351.600000000093,36351,40511.70000000007,43807.5,49559.60000000009,52311.70000000007],"key_events":[],"mouse_events":[2423.70000000007,2752,4503.800000000047,5031.5,6911.800000000047,9055.70000000007,9648,12095.70000000007,15495.600000000093,15879.400000000023,16159.600000000093,22831.70000000007,23391.5,23735.5,25080.100000000093,26983.5,27448.100000000093,27839.70000000007,29191.70000000007,29495.600000000093,29727.400000000023,30031.5,30407.800000000047,30814.800000000047,31791.5,32070.70000000007,32351.600000000093,36351,40055.30000000005,40511.70000000007,42447.60000000009,43807.5,45095.70000000007,49559.60000000009,51991.80000000005,52311.70000000007,53168],"straightlining":0.46153846153846156,"zigzagging":0.6666666666666666,"honeypot":0,"survey":"bisbas","trial_type":"survey-template","trial_index":3,"time_elapsed":191045,"internal_node_id":"0.0-3.0","task_version":"prescreen-v0.3","browser_interactions":6,"infrequency":0},{"responses":{"Q01":"3","Q02":"2","Q03":"2"},"rt":27645.099999999977,"radio_events":[7613.900000000023,11179.300000000047,12331.599999999977,21099.20000000007],"key_events":[],"mouse_events":[7613.900000000023,11179.300000000047,11739.5,12035.5,12331.599999999977,12907.300000000047,20723.300000000047,21099.20000000007,22331.300000000047,27644.5],"survey":"map","page":1,"trial_type":"survey-map","trial_index":4,"time_elapsed":218693,"internal_node_id":"0.0-4.0","task_version":"prescreen-v0.3","browser_interactions":0},{"responses":{"Q04":"4","Q05":"3","Q06":"3"},"rt":12820.20000000007,"radio_events":[2691.8000000000466,3459.9000000000233,7291.800000000047,8620],"key_events":[],"mouse_events":[2691.8000000000466,3459.9000000000233,7044.099999999977,7291.800000000047,8395.70000000007,8620,12819.70000000007],"survey":"map","page":2,"trial_type":"survey-map","trial_index":5,"time_elapsed":231516,"internal_node_id":"0.0-5.0","task_version":"prescreen-v0.3","browser_interactions":0},{"responses":{"Q07":"2","Q08":"0","Q09":"3"},"rt":13598.29999999993,"radio_events":[2870.6999999999534,8197.5,10645.5],"key_events":[],"mouse_events":[2565.399999999907,2870.6999999999534,8197.5,10421.699999999953,10645.5,13597.5],"survey":"map","page":3,"trial_type":"survey-map","trial_index":6,"time_elapsed":245116,"internal_node_id":"0.0-6.0","task_version":"prescreen-v0.3","browser_interactions":0},{"responses":{"Q10":"2","Q11":"1","Q12":"1","Q13":"1","Q16":"0","Q14":"2","Q15":"2"},"rt":37510.09999999998,"radio_events":[12333.300000000047,13413.900000000023,16029.300000000047,18572.800000000047,22780.900000000023,26556.699999999953,30877,33260.80000000005],"key_events":[],"mouse_events":[12333.300000000047,13413.900000000023,16029.300000000047,18205,18572.800000000047,22780.900000000023,26196.800000000047,26556.699999999953,30877,32981.09999999998,33260.80000000005,37509.19999999995],"survey":"map","page":4,"trial_type":"survey-map","trial_index":7,"time_elapsed":282629,"internal_node_id":"0.0-7.0","task_version":"prescreen-v0.3","browser_interactions":2,"infrequency":0},{"view_history":[{"page_index":0,"viewing_time":1716.9000000000233},{"page_index":1,"viewing_time":2312.1999999999534}],"rt":4030.0999999999767,"trial_type":"instructions","trial_index":8,"time_elapsed":286660,"internal_node_id":"0.0-8.0","task_version":"prescreen-v0.3"},{"responses":{"01":"Yes","01_ages_17":"17","01_ages_18":"18","02":"Yes","02_ages_15":"15","02_ages_16":"16","02_ages_17":"17","02_ages_18":"18","03":"Yes","03_ages_16":"16","04":"No","05":"No","06":"No"},"rt":65946.5,"item_order":[0,1,2,3,4,5],"radio_events":[10871.199999999953,27487.599999999977,35255.19999999995,47591.19999999995,49519.19999999995,62519.19999999995,64079.09999999998],"checkbox_events":[13095.29999999993,15359.099999999977,16807.099999999977,17463.099999999977,18935.399999999907,20407.199999999953,20831,22463.5,36440,42079.09999999998,42375.19999999995,42695.19999999995,42999.19999999995],"key_events":[],"mouse_events":[0.39999999990686774,10495.199999999953,10871.199999999953,13095.29999999993,15359.099999999977,16807.099999999977,17159.29999999993,17463.099999999977,18935.399999999907,20407.199999999953,20831,21183.399999999907,22263.099999999977,22463.5,22887.199999999953,27487.599999999977,35255.19999999995,36440,42079.09999999998,42375.19999999995,42695.19999999995,42999.19999999995,44047.29999999993,46751.39999999991,47167.09999999998,47591.19999999995,49215,49519.19999999995,50263.29999999993,62519.19999999995,64079.09999999998,65943.8999999999],"honeypot":0,"survey":"mace","page":1,"trial_type":"survey-mace","trial_index":9,"time_elapsed":352617,"internal_node_id":"0.0-9.0","task_version":"prescreen-v0.3","browser_interactions":0},{"responses":{"01":"No","02":"No","03":"Yes","03_ages_17":"17","03_ages_18":"18","04":"No","05":"No","06":"No","07":"No","08":"No"},"rt":19803.199999999953,"item_order":[0,1,2,3,4,5,6,7],"radio_events":[3463,5821.800000000047,10358.900000000023,14272.300000000047,15143.400000000023,16215.099999999977,17206.900000000023,18183.099999999977],"checkbox_events":[12583,13031],"key_events":[],"mouse_events":[2749.8000000000466,3463,5821.800000000047,10358.900000000023,12215.099999999977,12583,13031,13687.099999999977,14272.300000000047,15143.400000000023,16215.099999999977,17206.900000000023,17823.300000000047,18183.099999999977,19799.199999999953],"honeypot":0,"survey":"mace","page":2,"trial_type":"survey-mace","trial_index":10,"time_elapsed":372425,"internal_node_id":"0.0-10.0","task_version":"prescreen-v0.3","browser_interactions":0},{"responses":{"01":"No","02":"No","03":"No","04":"No"},"rt":11328.900000000023,"item_order":[0,1,2,3],"radio_events":[3423.0999999999767,6903.5,7742.599999999977,8542.70000000007],"checkbox_events":[],"key_events":[],"mouse_events":[3423.0999999999767,4126.800000000047,6903.5,7742.599999999977,8247.099999999977,8542.70000000007,11327],"honeypot":0,"survey":"mace","page":3,"trial_type":"survey-mace","trial_index":11,"time_elapsed":383758,"internal_node_id":"0.0-11.0","task_version":"prescreen-v0.3","browser_interactions":0},{"responses":{"01":"No","02":"No"},"rt":7444.5,"item_order":[0,1],"radio_events":[4715.300000000047,6651.400000000023],"checkbox_events":[],"key_events":[],"mouse_events":[4715.300000000047,5923.300000000047,6235.300000000047,6651.400000000023,7443.599999999977],"honeypot":0,"survey":"mace","page":4,"trial_type":"survey-mace","trial_index":12,"time_elapsed":391205,"internal_node_id":"0.0-12.0","task_version":"prescreen-v0.3","browser_interactions":0},{"responses":{"01":"No","02":"No","03":"No","04":"No","05":"No"},"rt":24557.099999999977,"item_order":[0,1,2,3,4],"radio_events":[5316.400000000023,9084.400000000023,13356.29999999993,14516,15299.79999999993],"checkbox_events":[],"key_events":[],"mouse_events":[5316.400000000023,9084.400000000023,10748.099999999977,13356.29999999993,13916.199999999953,14516,14972.699999999953,15299.79999999993,24555],"honeypot":0,"survey":"mace","page":5,"trial_type":"survey-mace","trial_index":13,"time_elapsed":415765,"internal_node_id":"0.0-13.0","task_version":"prescreen-v0.3","browser_interactions":0},{"responses":{"01":"No","02":"Yes","02_ages_15":"15","03":"No","04":"No","05":"No"},"rt":25605.800000000047,"item_order":[0,1,2,3,4],"radio_events":[3587.8000000000466,6444.20000000007,9227.600000000093,10316,12980.100000000093,17731.900000000023,20083.900000000023,22443.900000000023],"checkbox_events":[18915.900000000023],"key_events":[],"mouse_events":[3220.3000000000466,3587.8000000000466,6444.20000000007,9020,9227.600000000093,10316,12740.20000000007,12980.100000000093,17731.900000000023,18691.70000000007,18915.900000000023,20083.900000000023,22443.900000000023,22963.900000000023,25603.70000000007],"honeypot":0,"survey":"mace","page":6,"trial_type":"survey-mace","trial_index":14,"time_elapsed":441374,"internal_node_id":"0.0-14.0","task_version":"prescreen-v0.3","browser_interactions":0},{"responses":{"01":"No","02":"No","03":"No","04":"No","05":"No","06":"No","07":"No"},"rt":23549.900000000023,"item_order":[0,1,2,3,4,5,6],"radio_events":[2586.5,5618.400000000023,6778.599999999977,8083,12650.400000000023,13292.400000000023,14226.400000000023],"checkbox_events":[],"key_events":[],"mouse_events":[2362.6999999999534,2586.5,5618.400000000023,6778.599999999977,7578.699999999953,8083,12650.400000000023,13292.400000000023,13938.699999999953,14226.400000000023,23546.599999999977],"honeypot":0,"survey":"mace","page":7,"trial_type":"survey-mace","trial_index":15,"time_elapsed":464927,"internal_node_id":"0.0-15.0","task_version":"prescreen-v0.3","browser_interactions":0},{"responses":{"01":"No","02":"Yes","02_ages_9":"9","03":"No","04":"No"},"rt":25850.899999999907,"item_order":[0,1,2,3],"radio_events":[7945.099999999977,17632.79999999993,20961.29999999993,23233.29999999993],"checkbox_events":[18665.199999999953],"key_events":[],"mouse_events":[7729.5,7945.099999999977,8665.099999999977,17632.79999999993,18665.199999999953,20961.29999999993,22649.29999999993,23233.29999999993,25849.29999999993],"honeypot":0,"survey":"mace","page":8,"trial_type":"survey-mace","trial_index":16,"time_elapsed":490781,"internal_node_id":"0.0-16.0","task_version":"prescreen-v0.3","browser_interactions":4},{"responses":{"01":"Yes","01_ages_1":"1","01_ages_2":"2","01_ages_3":"3","01_ages_4":"4","01_ages_5":"5","01_ages_6":"6","01_ages_7":"7","01_ages_8":"8","01_ages_9":"9","01_ages_10":"10","01_ages_11":"11","01_ages_12":"12","02":"Yes","02_ages_1":"1","02_ages_2":"2","02_ages_3":"3","02_ages_4":"4","02_ages_5":"5","02_ages_6":"6","02_ages_7":"7","02_ages_8":"8","03":"Yes","03_ages_1":"1","03_ages_2":"2","03_ages_3":"3","03_ages_4":"4","03_ages_5":"5","03_ages_6":"6","03_ages_7":"7","03_ages_8":"8","04":"No"},"rt":51085.69999999995,"item_order":[0,1,2,3],"radio_events":[4859.400000000023,5835.699999999953,6427.400000000023,25875.199999999953,30203.5,37819.5,41411.30000000005],"checkbox_events":[10771.400000000023,11147.5,12051.800000000047,12323.300000000047,12707.400000000023,13499.900000000023,14387.5,16403.599999999977,17035.5,17891.599999999977,18355.5,18915.5,31691.599999999977,32043.400000000023,32387.400000000023,32811.30000000005,33083.59999999998,33379.59999999998,34531.40000000002,35211.69999999995,42868.30000000005,43155.69999999995,43451.30000000005,44107.5,45227.40000000002,45611.59999999998,46227.19999999995,46611.40000000002,47035.59999999998,47379.40000000002,48115.59999999998,48762.40000000002],"key_events":[],"mouse_events":[4603.400000000023,4859.400000000023,5835.699999999953,6427.400000000023,10771.400000000023,11147.5,11403.199999999953,11762.400000000023,12051.800000000047,12323.300000000047,12707.400000000023,13043.300000000047,13499.900000000023,14387.5,15979.199999999953,16403.599999999977,16683.400000000023,17035.5,17299.199999999953,17683.400000000023,17891.599999999977,18355.5,18915.5,25019.800000000047,25548.099999999977,25875.199999999953,30203.5,31347.400000000023,31691.599999999977,32043.400000000023,32387.400000000023,32811.30000000005,33083.59999999998,33379.59999999998,33716.09999999998,34531.40000000002,34787.19999999995,35211.69999999995,37476.59999999998,37819.5,38155.30000000005,41411.30000000005,42868.30000000005,43155.69999999995,43451.30000000005,43779.5,44107.5,44563.40000000002,44899.19999999995,45227.40000000002,45611.59999999998,46227.19999999995,46611.40000000002,47035.59999999998,47379.40000000002,48115.59999999998,48419.30000000005,48762.40000000002,49411.69999999995,51083.59999999998],"honeypot":0,"survey":"mace","page":9,"trial_type":"survey-mace","trial_index":17,"time_elapsed":541870,"internal_node_id":"0.0-17.0","task_version":"prescreen-v0.3","browser_interactions":0},{"responses":{"01":"No","02":"No","03":"No","04":"No","05":"No","06":"Yes","06_ages_17":"17","07":"Yes","07_ages_10":"10","07_ages_11":"11","07_ages_12":"12","07_ages_13":"13","07_ages_14":"14","07_ages_15":"15","08":"Yes","08_ages_4":"4","08_ages_5":"5","08_ages_6":"6","08_ages_7":"7","08_ages_8":"8","08_ages_9":"9","08_ages_10":"10","08_ages_11":"11","08_ages_12":"12"},"rt":38773.90000000002,"item_order":[0,1,2,3,4,5,6,7],"radio_events":[4450,5105.800000000047,6488.800000000047,8354.20000000007,14778.300000000047,20762.800000000047,22033.800000000047,28249.900000000023,35609.80000000005],"checkbox_events":[23906,24233.900000000023,24585.599999999977,24857.800000000047,25194.099999999977,25514.099999999977,29545.70000000007,29809.800000000047,30713.900000000023,30961.900000000023,31369.900000000023,31585.599999999977,32361.900000000023,32889.90000000002,33233,33649.80000000005,34033.80000000005,37049.59999999998],"key_events":[],"mouse_events":[3961.70000000007,4450,5105.800000000047,5921.900000000023,6488.800000000047,8354.20000000007,14778.300000000047,20762.800000000047,22033.800000000047,23906,24233.900000000023,24585.599999999977,24857.800000000047,25194.099999999977,25514.099999999977,28249.900000000023,29545.70000000007,29809.800000000047,30250.099999999977,30713.900000000023,30961.900000000023,31369.900000000023,31585.599999999977,31818,32073.5,32361.900000000023,32889.90000000002,33233,33649.80000000005,34033.80000000005,35609.80000000005,37049.59999999998,37409.80000000005,38769.90000000002],"honeypot":0,"survey":"mace","page":10,"trial_type":"survey-mace","trial_index":18,"time_elapsed":580649,"internal_node_id":"0.0-18.0","task_version":"prescreen-v0.3","browser_interactions":0,"instructed":0},{"rt":44376.5,"trial_type":"mental-health-alert","trial_index":19,"time_elapsed":625027,"internal_node_id":"0.0-19.0","task_version":"prescreen-v0.3","interactions":"[{\"event\":\"blur\",\"trial\":0,\"time\":10525},{\"event\":\"focus\",\"trial\":0,\"time\":14678},{\"event\":\"blur\",\"trial\":0,\"time\":15509},{\"event\":\"focus\",\"trial\":0,\"time\":24149},{\"event\":\"blur\",\"trial\":1,\"time\":27093},{\"event\":\"focus\",\"trial\":1,\"time\":27934},{\"event\":\"blur\",\"trial\":3,\"time\":163949},{\"event\":\"focus\",\"trial\":3,\"time\":164782},{\"event\":\"blur\",\"trial\":3,\"time\":175120},{\"event\":\"focus\",\"trial\":3,\"time\":177838},{\"event\":\"blur\",\"trial\":3,\"time\":179204},{\"event\":\"focus\",\"trial\":3,\"time\":180233},{\"event\":\"blur\",\"trial\":7,\"time\":248405},{\"event\":\"focus\",\"trial\":7,\"time\":257358},{\"event\":\"blur\",\"trial\":16,\"time\":471143},{\"event\":\"focus\",\"trial\":16,\"time\":472582},{\"event\":\"blur\",\"trial\":16,\"time\":478748},{\"event\":\"focus\",\"trial\":16,\"time\":482508},{\"event\":\"blur\",\"trial\":19,\"time\":582421},{\"event\":\"focus\",\"trial\":19,\"time\":595646},{\"event\":\"blur\",\"trial\":19,\"time\":595647},{\"event\":\"focus\",\"trial\":19,\"time\":619602}]"}]