[{"view_history":[{"page_index":0,"viewing_time":9251.400000000373},{"page_index":1,"viewing_time":7871.200000000186},{"page_index":2,"viewing_time":12497.299999999814},{"page_index":3,"viewing_time":6195.0999999996275}],"rt":35818.10000000056,"trial_type":"instructions","trial_index":0,"time_elapsed":35867,"internal_node_id":"0.0-0.0","task_version":"prescreen-v0.3"},{"rt":30931.5,"responses":{"age":"18","gender-categorical":"Female","gender-free-response":"","ethnicity":"Not Hispanic or Latino","race":["White"],"education":"High school"},"trial_type":"survey-demo","trial_index":1,"time_elapsed":66824,"internal_node_id":"0.0-1.0","task_version":"prescreen-v0.3"},{"responses":{"Q05":"1","Q08":"3","Q10":"3","Q18":"2","Q09":"2","Q15":"3","Q13":"3","Q03":"1","Q06":"3","Q17":"2","Q01":"3","Q12":"3","Q04":"2","Q02":"3","Q19":"2","Q11":"2","Q07":"1","Q20":"3","Q14":"2","Q21":"3","Q16":"2"},"rt":254241.2000000002,"item_order":[4,7,9,17,8,14,12,2,5,16,0,11,3,1,18,10,6,19,13,20,15],"radio_events":[20907.400000000373,25543.5,47724.5,67417.29999999981,72144.70000000019,86754,96328.70000000019,110816.90000000037,118091.40000000037,131090.7999999998,132420.7000000002,143239.60000000056,149986.60000000056,156522.90000000037,170116.40000000037,173994.10000000056,185966.7000000002,190474.90000000037,202705.5,216036.40000000037,223271.2999999998,252929.10000000056],"key_events":[],"mouse_events":[20907.400000000373,25543.5,47724.5,67417.29999999981,72144.70000000019,85623,86754,94660.5,96328.70000000019,110816.90000000037,118091.40000000037,127174.10000000056,131090.7999999998,132420.7000000002,143239.60000000056,149015.60000000056,149986.60000000056,156522.90000000037,169217.10000000056,170116.40000000037,173994.10000000056,185966.7000000002,190474.90000000037,202705.5,216036.40000000037,223271.2999999998,252929.10000000056,254229.40000000037],"straightlining":0.47619047619047616,"zigzagging":0.55,"honeypot":0,"survey":"sns","trial_type":"survey-template","trial_index":2,"time_elapsed":321093,"internal_node_id":"0.0-2.0","task_version":"prescreen-v0.3","browser_interactions":0,"infrequency":0},{"responses":{"Q10":"0","Q09":"0","Q03":"3","Q05":"2","Q02":"2","Q07":"3","Q01":"3","Q13":"0","Q08":"1","Q04":"2","Q12":"1","Q11":"0","Q06":"1"},"rt":221410,"item_order":[9,8,2,4,1,6,0,12,7,3,11,10,5],"radio_events":[18457.400000000373,26595.900000000373,55326.10000000056,59715.5,65365.200000000186,80419.30000000075,84908.10000000056,109426.60000000056,118171.5,151791.2000000002,191344,208215.90000000037,220242.2000000002],"key_events":[],"mouse_events":[18457.400000000373,25444.800000000745,26595.900000000373,55326.10000000056,59715.5,65365.200000000186,80419.30000000075,84908.10000000056,109426.60000000056,118171.5,151791.2000000002,191344,208215.90000000037,219391.40000000037,220242.2000000002,221403.2000000002],"straightlining":0.3076923076923077,"zigzagging":0.75,"honeypot":0,"survey":"bisbas","trial_type":"survey-template","trial_index":3,"time_elapsed":542521,"internal_node_id":"0.0-3.0","task_version":"prescreen-v0.3","browser_interactions":2,"infrequency":0},{"responses":{"Q01":"2","Q02":"1","Q03":"3"},"rt":71074.70000000019,"radio_events":[34728.90000000037,54870.300000000745,69854.90000000037],"key_events":[],"mouse_events":[34728.90000000037,54870.300000000745,69854.90000000037,71070.90000000037],"survey":"map","page":1,"trial_type":"survey-map","trial_index":4,"time_elapsed":613611,"internal_node_id":"0.0-4.0","task_version":"prescreen-v0.3","browser_interactions":0},{"responses":{"Q04":"3","Q05":"2","Q06":"1"},"rt":50535.299999999814,"radio_events":[27478.5,40033.5,41163.799999999814,47562.60000000056],"key_events":[],"mouse_events":[27478.5,40033.5,41163.799999999814,46302.5,47562.60000000056,50532.5],"survey":"map","page":2,"trial_type":"survey-map","trial_index":5,"time_elapsed":664155,"internal_node_id":"0.0-5.0","task_version":"prescreen-v0.3","browser_interactions":0},{"responses":{"Q07":"1","Q08":"3","Q09":"2"},"rt":58796.299999999814,"radio_events":[41826.199999999255,49725.09999999963,56862.89999999944],"key_events":[],"mouse_events":[41826.199999999255,49725.09999999963,56862.89999999944,58793.39999999944],"survey":"map","page":3,"trial_type":"survey-map","trial_index":6,"time_elapsed":722961,"internal_node_id":"0.0-6.0","task_version":"prescreen-v0.3","browser_interactions":0},{"responses":{"Q10":"1","Q11":"0","Q12":"2","Q13":"3","Q16":"0","Q14":"0","Q15":"0"},"rt":112651.19999999925,"radio_events":[57394.799999999814,64753.199999999255,72098.89999999944,83155.69999999925,92972.29999999981,103747.59999999963,110335.19999999925],"key_events":[],"mouse_events":[57394.799999999814,61873,63322.199999999255,64753.199999999255,72098.89999999944,83155.69999999925,92972.29999999981,103747.59999999963,110335.19999999925,112646],"survey":"map","page":4,"trial_type":"survey-map","trial_index":7,"time_elapsed":835626,"internal_node_id":"0.0-7.0","task_version":"prescreen-v0.3","browser_interactions":0,"infrequency":0},{"view_history":[{"page_index":0,"viewing_time":8269.700000000186},{"page_index":1,"viewing_time":9773.100000000559}],"rt":18045.300000000745,"trial_type":"instructions","trial_index":8,"time_elapsed":853677,"internal_node_id":"0.0-8.0","task_version":"prescreen-v0.3"},{"responses":{"01":"Yes","01_ages_6":"6","01_ages_7":"7","01_ages_8":"8","01_ages_9":"9","01_ages_10":"10","01_ages_11":"11","01_ages_12":"12","01_ages_13":"13","01_ages_14":"14","01_ages_15":"15","01_ages_16":"16","01_ages_17":"17","01_ages_18":"18","02":"Yes","02_ages_1":"1","02_ages_2":"2","02_ages_3":"3","02_ages_4":"4","02_ages_5":"5","02_ages_6":"6","02_ages_7":"7","02_ages_8":"8","02_ages_9":"9","02_ages_10":"10","02_ages_11":"11","02_ages_12":"12","02_ages_13":"13","02_ages_14":"14","02_ages_15":"15","02_ages_16":"16","02_ages_17":"17","02_ages_18":"18","03":"No","04":"Yes","04_ages_10":"10","04_ages_11":"11","04_ages_12":"12","04_ages_13":"13","04_ages_14":"14","04_ages_15":"15","04_ages_16":"16","04_ages_17":"17","04_ages_18":"18","05":"No","06":"No"},"rt":152731.7000000002,"item_order":[0,1,2,3,4,5],"radio_events":[29865.799999999814,57208.09999999963,93337.70000000019,97057.20000000019,144775.7999999998,151454.5],"checkbox_events":[35083.59999999963,36515.39999999944,37346.200000000186,38426.799999999814,39087.39999999944,40026.799999999814,41977.39999999944,42678.5,43359.39999999944,44461.59999999963,46031.09999999963,47010.89999999944,49102.299999999814,58789.799999999814,59901.5,61072.700000000186,63963.09999999963,64293.89999999944,64994.89999999944,67735.59999999963,69047.5,70047.29999999981,71791.39999999944,72680.70000000019,73882.70000000019,74703.20000000019,75873.5,77865.79999999981,79247.29999999981,80608.70000000019,81297.59999999963,83039.29999999981,86200.20000000019,98898.5,102870.5,104541.29999999981,105433.5,106926,107986.20000000019,109266.70000000019,110346.89999999944,111298.20000000019],"key_events":[],"mouse_events":[0.20000000018626451,29865.799999999814,35083.59999999963,36515.39999999944,37346.200000000186,38426.799999999814,39087.39999999944,40026.799999999814,41977.39999999944,42678.5,43359.39999999944,44461.59999999963,46031.09999999963,47010.89999999944,49102.299999999814,57208.09999999963,58789.799999999814,59901.5,61072.700000000186,63963.09999999963,64293.89999999944,64994.89999999944,67735.59999999963,69047.5,70047.29999999981,71007.89999999944,71791.39999999944,72680.70000000019,73882.70000000019,74703.20000000019,75873.5,77493.70000000019,77865.79999999981,79247.29999999981,80608.70000000019,81297.59999999963,82677.29999999981,83039.29999999981,86200.20000000019,93337.70000000019,97057.20000000019,98898.5,101777.89999999944,102159.39999999944,102870.5,104230.70000000019,104541.29999999981,105433.5,106926,107986.20000000019,109266.70000000019,110346.89999999944,111298.20000000019,142294.7999999998,143914.7999999998,144775.7999999998,151454.5,152716.09999999963],"honeypot":0,"survey":"mace","page":1,"trial_type":"survey-mace","trial_index":9,"time_elapsed":1006436,"internal_node_id":"0.0-9.0","task_version":"prescreen-v0.3","browser_interactions":0},{"responses":{"01":"No","02":"No","03":"Yes","03_ages_1":"1","03_ages_2":"2","03_ages_3":"3","04":"No","05":"No","06":"No","07":"No","08":"No"},"rt":73120.40000000037,"item_order":[0,1,2,3,4,5,6,7],"radio_events":[8499.800000000745,13549.100000000559,19639.10000000056,59961,62888.700000000186,66186.10000000056,68314.30000000075,71440.80000000075],"checkbox_events":[53682.60000000056,54842,55652.200000000186],"key_events":[],"mouse_events":[8499.800000000745,13549.100000000559,19639.10000000056,21878.60000000056,37616.40000000037,40484.60000000056,53682.60000000056,54842,55652.200000000186,59961,62888.700000000186,66186.10000000056,68314.30000000075,71440.80000000075,73100.80000000075],"honeypot":0,"survey":"mace","page":2,"trial_type":"survey-mace","trial_index":10,"time_elapsed":1079578,"internal_node_id":"0.0-10.0","task_version":"prescreen-v0.3","browser_interactions":0},{"responses":{"01":"No","02":"No","03":"No","04":"No"},"rt":76239.80000000075,"item_order":[0,1,2,3],"radio_events":[63741.40000000037,68685.40000000037,72781.70000000112,74818.90000000037],"checkbox_events":[],"key_events":[],"mouse_events":[63741.40000000037,68685.40000000037,72781.70000000112,74818.90000000037,76229.30000000075],"honeypot":0,"survey":"mace","page":3,"trial_type":"survey-mace","trial_index":11,"time_elapsed":1155833,"internal_node_id":"0.0-11.0","task_version":"prescreen-v0.3","browser_interactions":0},{"responses":{"01":"No","02":"No"},"rt":9881.199999999255,"item_order":[0,1],"radio_events":[5259.699999999255,7927],"checkbox_events":[],"key_events":[],"mouse_events":[5259.699999999255,7927,9875.800000000745],"honeypot":0,"survey":"mace","page":4,"trial_type":"survey-mace","trial_index":12,"time_elapsed":1165726,"internal_node_id":"0.0-12.0","task_version":"prescreen-v0.3","browser_interactions":0},{"responses":{"01":"No","02":"No","03":"No","04":"No","05":"No"},"rt":47272.199999999255,"item_order":[0,1,2,3,4],"radio_events":[24745.599999999627,27742.900000000373,33316.199999999255,42523.5,45550.90000000037],"checkbox_events":[],"key_events":[],"mouse_events":[24745.599999999627,27742.900000000373,33316.199999999255,42523.5,45550.90000000037,47259.59999999963],"honeypot":0,"survey":"mace","page":5,"trial_type":"survey-mace","trial_index":13,"time_elapsed":1213017,"internal_node_id":"0.0-13.0","task_version":"prescreen-v0.3","browser_interactions":0},{"responses":{"01":"Yes","01_ages_6":"6","01_ages_7":"7","01_ages_8":"8","01_ages_15":"15","01_ages_16":"16","01_ages_17":"17","02":"Yes","02_ages_9":"9","02_ages_10":"10","02_ages_11":"11","03":"Yes","03_ages_14":"14","03_ages_15":"15","03_ages_16":"16","04":"Yes","04_ages_14":"14","04_ages_15":"15","04_ages_16":"16","05":"Yes","05_ages_15":"15","05_ages_16":"16"},"rt":89916.80000000075,"item_order":[0,1,2,3,4],"radio_events":[24484,40184.20000000112,62724.10000000149,74460,83187.40000000037],"checkbox_events":[27831.200000001118,28620.200000001118,29520,32688.800000000745,33768.800000000745,35129.40000000037,53409,54259.40000000037,55399.40000000037,65633.60000000149,66934,67914.30000000075,76428.70000000112,77450.80000000075,78281.5,85695.5,87445.10000000149],"key_events":[],"mouse_events":[24484,27831.200000001118,28620.200000001118,29520,32688.800000000745,33768.800000000745,35129.40000000037,40184.20000000112,53409,54259.40000000037,55399.40000000037,60825.20000000112,62724.10000000149,65633.60000000149,66934,67914.30000000075,74460,76428.70000000112,77450.80000000075,78281.5,83187.40000000037,84976.30000000075,85695.5,87445.10000000149,89904.20000000112],"honeypot":0,"survey":"mace","page":6,"trial_type":"survey-mace","trial_index":14,"time_elapsed":1302953,"internal_node_id":"0.0-14.0","task_version":"prescreen-v0.3","browser_interactions":0},{"responses":{"01":"No","02":"Yes","02_ages_15":"15","03":"No","04":"No","05":"No","06":"Yes","06_ages_15":"15","07":"Yes","07_ages_15":"15"},"rt":67191.80000000075,"item_order":[0,1,2,3,4,5,6],"radio_events":[11813.800000000745,15941.099999999627,32734.200000001118,39678.70000000112,40629.5,44356.5,54801.40000000037],"checkbox_events":[17718.599999999627,45885.90000000037,56528.59999999963],"key_events":[],"mouse_events":[11813.800000000745,15941.099999999627,17718.599999999627,32734.200000001118,35781.5,39678.70000000112,40629.5,44356.5,45885.90000000037,54801.40000000037,56528.59999999963,67173.20000000112],"honeypot":0,"survey":"mace","page":7,"trial_type":"survey-mace","trial_index":15,"time_elapsed":1370169,"internal_node_id":"0.0-15.0","task_version":"prescreen-v0.3","browser_interactions":0},{"responses":{"01":"No","02":"No","03":"Yes","03_ages_1":"1","03_ages_2":"2","03_ages_3":"3","03_ages_4":"4","03_ages_5":"5","03_ages_6":"6","03_ages_7":"7","03_ages_8":"8","03_ages_9":"9","03_ages_10":"10","03_ages_11":"11","03_ages_12":"12","03_ages_13":"13","03_ages_14":"14","03_ages_15":"15","03_ages_16":"16","03_ages_17":"17","03_ages_18":"18","04":"No"},"rt":65895.29999999888,"item_order":[0,1,2,3],"radio_events":[23308.39999999851,25037.89999999851,29966,63913.199999999255],"checkbox_events":[32475.39999999851,34318.199999999255,35058.699999999255,35789.89999999851,37762.199999999255,38763.199999999255,40565.09999999963,41615.39999999851,42355.699999999255,43226,48047.89999999851,48877.79999999888,50909,51740.5,53192,54432,56513,57513.39999999851],"key_events":[],"mouse_events":[23308.39999999851,25037.89999999851,29966,32475.39999999851,33356.39999999851,34318.199999999255,35058.699999999255,35789.89999999851,36931,37762.199999999255,38763.199999999255,39864,40565.09999999963,41615.39999999851,42355.699999999255,43226,44946.59999999963,46026.5,47706.79999999888,48047.89999999851,48877.79999999888,49989,50909,51740.5,53192,54432,56172.59999999963,56513,57513.39999999851,63913.199999999255,65884.59999999963],"honeypot":0,"survey":"mace","page":8,"trial_type":"survey-mace","trial_index":16,"time_elapsed":1436079,"internal_node_id":"0.0-16.0","task_version":"prescreen-v0.3","browser_interactions":0},{"responses":{"01":"Yes","01_ages_1":"1","01_ages_2":"2","01_ages_3":"3","01_ages_4":"4","01_ages_5":"5","01_ages_6":"6","01_ages_7":"7","01_ages_8":"8","01_ages_9":"9","01_ages_10":"10","01_ages_11":"11","01_ages_12":"12","01_ages_13":"13","01_ages_14":"14","01_ages_15":"15","01_ages_16":"16","01_ages_17":"17","01_ages_18":"18","02":"Yes","02_ages_1":"1","02_ages_2":"2","02_ages_3":"3","02_ages_4":"4","02_ages_5":"5","02_ages_6":"6","02_ages_7":"7","02_ages_8":"8","02_ages_9":"9","02_ages_10":"10","02_ages_11":"11","02_ages_12":"12","02_ages_13":"13","02_ages_14":"14","02_ages_15":"15","02_ages_16":"16","02_ages_17":"17","02_ages_18":"18","03":"Yes","03_ages_1":"1","03_ages_2":"2","03_ages_3":"3","03_ages_4":"4","03_ages_5":"5","03_ages_6":"6","03_ages_7":"7","03_ages_8":"8","03_ages_9":"9","03_ages_10":"10","03_ages_11":"11","03_ages_12":"12","03_ages_13":"13","03_ages_14":"14","03_ages_15":"15","03_ages_16":"16","03_ages_17":"17","03_ages_18":"18","04":"Yes","04_ages_1":"1","04_ages_2":"2","04_ages_3":"3","04_ages_4":"4","04_ages_5":"5","04_ages_6":"6","04_ages_7":"7","04_ages_8":"8","04_ages_9":"9","04_ages_10":"10","04_ages_11":"11","04_ages_12":"12","04_ages_13":"13","04_ages_14":"14","04_ages_15":"15","04_ages_16":"16","04_ages_17":"17","04_ages_18":"18"},"rt":122002.90000000037,"item_order":[0,1,2,3],"radio_events":[8940.400000000373,36982,68703.90000000037,97997.90000000037],"checkbox_events":[12282.799999998882,13253.699999999255,14314.699999999255,15567,16358.799999998882,17810.599999999627,18811.099999999627,20602.900000000373,21673.299999998882,22825.599999999627,23485.5,24266.5,25728.5,26520,27270.299999998882,28290.799999998882,30823,31823.799999998882,38481.59999999963,40672.40000000037,41603.40000000037,42944.699999999255,44757.199999999255,45947.199999999255,47169.29999999888,49312.79999999888,51366,52586.5,53656.90000000037,54617.79999999888,55719.199999999255,56530.09999999963,57320.5,58361.40000000037,59232.5,60914.79999999888,71424.29999999888,72186.29999999888,72968.19999999925,74137.90000000037,74990.19999999925,75821.09999999963,76951.5,77952.29999999888,78773.29999999888,79574,80494.69999999925,83077.40000000037,83827.69999999925,84649.69999999925,85408.90000000037,87079.69999999925,88089.69999999925,89211.40000000037,99429.09999999963,102082,102926.19999999925,104134.79999999888,105054.90000000037,106046,106797.59999999963,108519.59999999963,109590.59999999963,110401.90000000037,111442.69999999925,112613,114496,115968.5,117099.69999999925,118080.09999999963,119070.69999999925,119821.19999999925],"key_events":[],"mouse_events":[8940.400000000373,11992.299999998882,12282.799999998882,13253.699999999255,14314.699999999255,15567,16358.799999998882,17450.099999999627,17810.599999999627,18811.099999999627,20212,20602.900000000373,21673.299999998882,22825.599999999627,23485.5,24266.5,25728.5,26520,27270.299999998882,28290.799999998882,29370.299999998882,29771.199999999255,30823,31823.799999998882,36982,38481.59999999963,40672.40000000037,41603.40000000037,42944.699999999255,44757.199999999255,45947.199999999255,47169.29999999888,48393.40000000037,49312.79999999888,51035.40000000037,51366,52586.5,53656.90000000037,54617.79999999888,55719.199999999255,56530.09999999963,57320.5,58361.40000000037,59232.5,60093.40000000037,60914.79999999888,68703.90000000037,71424.29999999888,72186.29999999888,72968.19999999925,74137.90000000037,74990.19999999925,75821.09999999963,76951.5,77952.29999999888,78773.29999999888,79574,80494.69999999925,81255.40000000037,83077.40000000037,83827.69999999925,84649.69999999925,85408.90000000037,86728.40000000037,87079.69999999925,88089.69999999925,89211.40000000037,97997.90000000037,99429.09999999963,100430,102082,102926.19999999925,104134.79999999888,105054.90000000037,106046,106797.59999999963,107498,108519.59999999963,109590.59999999963,110401.90000000037,111442.69999999925,112613,113826.59999999963,114496,115318.40000000037,115968.5,117099.69999999925,118080.09999999963,119070.69999999925,119821.19999999925,121992.90000000037],"honeypot":0,"survey":"mace","page":9,"trial_type":"survey-mace","trial_index":17,"time_elapsed":1558099,"internal_node_id":"0.0-17.0","task_version":"prescreen-v0.3","browser_interactions":0},{"responses":{"01":"Yes","01_ages_4":"4","01_ages_5":"5","01_ages_6":"6","01_ages_7":"7","01_ages_8":"8","01_ages_9":"9","01_ages_10":"10","02":"No","03":"Yes","03_ages_12":"12","03_ages_13":"13","03_ages_14":"14","03_ages_15":"15","03_ages_16":"16","03_ages_17":"17","03_ages_18":"18","04":"Yes","04_ages_12":"12","04_ages_13":"13","04_ages_14":"14","04_ages_15":"15","04_ages_16":"16","04_ages_17":"17","04_ages_18":"18","05":"No","06":"Yes","06_ages_17":"17","07":"Yes","07_ages_1":"1","07_ages_2":"2","07_ages_3":"3","07_ages_4":"4","07_ages_5":"5","07_ages_6":"6","07_ages_7":"7","07_ages_8":"8","07_ages_9":"9","07_ages_10":"10","07_ages_11":"11","07_ages_12":"12","07_ages_13":"13","07_ages_14":"14","07_ages_15":"15","07_ages_16":"16","07_ages_17":"17","07_ages_18":"18","08":"Yes","08_ages_1":"1","08_ages_2":"2","08_ages_3":"3","08_ages_4":"4","08_ages_5":"5","08_ages_6":"6","08_ages_7":"7","08_ages_8":"8","08_ages_9":"9","08_ages_10":"10","08_ages_11":"11","08_ages_12":"12","08_ages_13":"13","08_ages_14":"14","08_ages_15":"15","08_ages_16":"16","08_ages_17":"17","08_ages_18":"18"},"rt":130507.29999999888,"item_order":[0,1,2,3,4,5,6,7],"radio_events":[20887.799999998882,34195.59999999963,36454.79999999888,51169.29999999888,67528.19999999925,71107.5,79467.09999999963,91386.09999999963,93117.09999999963],"checkbox_events":[23349.5,24540.599999999627,25361.5,28692.699999999255,29723.799999998882,30735.400000000373,31495.5,38525.699999999255,39215.09999999963,41014.79999999888,41917.40000000037,42917.5,43737.59999999963,44818.90000000037,54170.09999999963,55021,55762.90000000037,56663,60197.40000000037,60987.90000000037,62139,72887.59999999963,82350.29999999888,82990.09999999963,84883.5,85613.90000000037,87754.09999999963,88955.79999999888,89735.69999999925,95008,96189,100297.19999999925,101068,102068.5,102918.5,103659.5,104811.90000000037,105792.69999999925,106664.5,107597.09999999963,109833.79999999888,111865.90000000037,112657.40000000037,113648.79999999888,115349,116199.59999999963,117231.29999999888,118292.59999999963,119523.40000000037,120284.69999999925,123196.59999999963,123958,124788.69999999925,125730.90000000037,126863.5,127893.29999999888,128654.90000000037,129484.69999999925],"key_events":[],"mouse_events":[20887.799999998882,23349.5,24540.599999999627,25361.5,26461.599999999627,28692.699999999255,29723.799999998882,30735.400000000373,31495.5,34195.59999999963,36454.79999999888,38525.699999999255,39215.09999999963,40674.09999999963,41014.79999999888,41917.40000000037,42917.5,43737.59999999963,44818.90000000037,51169.29999999888,54170.09999999963,55021,55762.90000000037,56663,57606,58605.79999999888,60197.40000000037,60987.90000000037,62139,67528.19999999925,71107.5,72887.59999999963,79467.09999999963,81607.19999999925,82350.29999999888,82990.09999999963,83830.5,84883.5,85613.90000000037,87754.09999999963,88955.79999999888,89735.69999999925,91386.09999999963,93117.09999999963,94330,95008,96189,100297.19999999925,101068,102068.5,102918.5,103659.5,104811.90000000037,105792.69999999925,106664.5,107597.09999999963,109833.79999999888,110905.69999999925,111865.90000000037,112657.40000000037,113648.79999999888,115349,116199.59999999963,117231.29999999888,118292.59999999963,119523.40000000037,120284.69999999925,121366.19999999925,122275.40000000037,123196.59999999963,123958,124788.69999999925,125730.90000000037,126863.5,127893.29999999888,128654.90000000037,129484.69999999925,130487],"honeypot":0,"survey":"mace","page":10,"trial_type":"survey-mace","trial_index":18,"time_elapsed":1688635,"internal_node_id":"0.0-18.0","task_version":"prescreen-v0.3","browser_interactions":0,"instructed":0},{"rt":18135,"trial_type":"mental-health-alert","trial_index":19,"time_elapsed":1706778,"internal_node_id":"0.0-19.0","task_version":"prescreen-v0.3","interactions":"[{\"event\":\"blur\",\"trial\":3,\"time\":356031},{\"event\":\"focus\",\"trial\":3,\"time\":357542}]"}]