[{"view_history":[{"page_index":0,"viewing_time":5580.200000000186},{"page_index":1,"viewing_time":4990},{"page_index":2,"viewing_time":2641.5},{"page_index":3,"viewing_time":1405.3999999999069}],"rt":14619.100000000093,"trial_type":"instructions","trial_index":0,"time_elapsed":14638,"internal_node_id":"0.0-0.0","task_version":"prescreen-v0.3"},{"rt":36173.10000000009,"responses":{"age":"23","gender-categorical":"Male","gender-free-response":"","ethnicity":"Not Hispanic or Latino","race":["Black or African American"],"education":"Bachelor degree","siblings":"4"},"trial_type":"survey-demo","trial_index":1,"time_elapsed":50824,"internal_node_id":"0.0-1.0","task_version":"prescreen-v0.3"},{"responses":{"Q11":"1","Q14":"0","Q05":"2","Q20":"0","Q04":"1","Q13":"1","Q02":"0","Q17":"0","Q16":"0","Q19":"0","Q21":"3","Q09":"0","Q10":"0","Q03":"0","Q15":"2","Q12":"0","Q08":"1","Q01":"1","Q06":"2","Q07":"1","Q18":"0"},"rt":233988.2999999998,"item_order":[10,13,4,19,3,12,1,16,15,18,20,8,9,2,14,11,7,0,5,6,17],"radio_events":[5222.899999999907,9297.600000000093,102403,107079.79999999981,109974.29999999981,139445.19999999972,142969,145119.6000000001,149911.3999999999,151977.3999999999,159513.3999999999,163663.7999999998,166385.3999999999,168073,192021,198197.69999999972,203759.5,206048.69999999972,208687.1000000001,222384.69999999972,226852.19999999972,232326.7999999998],"key_events":[],"mouse_events":[4073,5222.899999999907,9297.600000000093,102403,104694.29999999981,105523.6000000001,107079.79999999981,109974.29999999981,139445.19999999972,142969,145119.6000000001,148919.8999999999,149911.3999999999,151977.3999999999,155605.7999999998,159513.3999999999,163663.7999999998,166385.3999999999,168073,192021,198197.69999999972,203759.5,206048.69999999972,208687.1000000001,222384.69999999972,226852.19999999972,232326.7999999998,233984.19999999972],"straightlining":0.5238095238095238,"zigzagging":0.45,"honeypot":0,"survey":"sns","trial_type":"survey-template","trial_index":2,"time_elapsed":284819,"internal_node_id":"0.0-2.0","task_version":"prescreen-v0.3","browser_interactions":0,"infrequency":0},{"responses":{"Q08":"2","Q10":"2","Q07":"3","Q12":"1","Q09":"2","Q02":"2","Q11":"1","Q06":"2","Q04":"1","Q13":"0","Q03":"2","Q05":"3","Q01":"1"},"rt":128980.19999999972,"item_order":[7,9,6,11,8,1,10,5,3,12,2,4,0],"radio_events":[14373.100000000093,17202,19907.600000000093,28148.19999999972,33255.69999999972,36741.799999999814,40046.799999999814,70855.19999999972,86372.80000000028,89783.80000000028,97241.6000000001,100307.19999999972,125321.6000000001,127794.49999999953],"key_events":[],"mouse_events":[14373.100000000093,17202,18365.19999999972,19907.600000000093,28148.19999999972,32559.399999999907,33255.69999999972,36741.799999999814,40046.799999999814,70855.19999999972,86372.80000000028,89783.80000000028,97241.6000000001,100307.19999999972,125321.6000000001,127794.49999999953,128976.99999999953],"straightlining":0.46153846153846156,"zigzagging":0.5833333333333334,"honeypot":0,"survey":"bisbas","trial_type":"survey-template","trial_index":3,"time_elapsed":413807,"internal_node_id":"0.0-3.0","task_version":"prescreen-v0.3","browser_interactions":2,"infrequency":0},{"responses":{"Q01":"3","Q02":"3","Q03":"3"},"rt":52703.40000000037,"radio_events":[36060,42162.09999999963,51730.5],"key_events":[],"mouse_events":[36060,42162.09999999963,51730.5,52702.09999999963],"survey":"map","page":1,"trial_type":"survey-map","trial_index":4,"time_elapsed":466520,"internal_node_id":"0.0-4.0","task_version":"prescreen-v0.3","browser_interactions":0},{"responses":{"Q04":"4","Q05":"2","Q06":"4"},"rt":139623.7000000002,"radio_events":[38911.200000000186,45044.799999999814,138570.59999999963],"key_events":[],"mouse_events":[38911.200000000186,45044.799999999814,138570.59999999963,139622.2999999998],"survey":"map","page":2,"trial_type":"survey-map","trial_index":5,"time_elapsed":606149,"internal_node_id":"0.0-5.0","task_version":"prescreen-v0.3","browser_interactions":0},{"responses":{"Q07":"3","Q08":"0","Q09":"3"},"rt":130246.79999999981,"radio_events":[48455.200000000186,63808.89999999944,126574.59999999963],"key_events":[],"mouse_events":[48455.200000000186,63808.89999999944,125717.09999999963,126574.59999999963,130245.39999999944],"survey":"map","page":3,"trial_type":"survey-map","trial_index":6,"time_elapsed":736399,"internal_node_id":"0.0-6.0","task_version":"prescreen-v0.3","browser_interactions":0},{"responses":{"Q10":"2","Q11":"3","Q12":"2","Q13":"1","Q16":"0","Q14":"3","Q15":"3"},"rt":293160.9000000004,"radio_events":[5778.5,78900.5,85882.5,95023.29999999981,125778.90000000037,186217.60000000056,286605.4000000004],"key_events":[],"mouse_events":[4793.4000000003725,5778.5,78900.5,85882.5,93070.79999999981,94119,95023.29999999981,125778.90000000037,186217.60000000056,286605.4000000004,291799.2999999998,293158.2999999998],"survey":"map","page":4,"trial_type":"survey-map","trial_index":7,"time_elapsed":1029566,"internal_node_id":"0.0-7.0","task_version":"prescreen-v0.3","browser_interactions":0,"infrequency":0},{"view_history":[{"page_index":0,"viewing_time":2806},{"page_index":1,"viewing_time":4405.700000000186}],"rt":7213.799999999814,"trial_type":"instructions","trial_index":8,"time_elapsed":1036784,"internal_node_id":"0.0-8.0","task_version":"prescreen-v0.3"},{"responses":{"01":"No","02":"No","03":"No","04":"No","05":"No","06":"No"},"rt":32749.299999999814,"item_order":[0,1,2,3,4,5],"radio_events":[12101.400000000373,20545.900000000373,24411.60000000056,27068.400000000373,28376.10000000056,31773.799999999814],"checkbox_events":[],"key_events":[],"mouse_events":[1.2999999998137355,12101.400000000373,20545.900000000373,24411.60000000056,25600,27068.400000000373,28376.10000000056,31773.799999999814,32741.799999999814],"honeypot":0,"survey":"mace","page":1,"trial_type":"survey-mace","trial_index":9,"time_elapsed":1069553,"internal_node_id":"0.0-9.0","task_version":"prescreen-v0.3","browser_interactions":0},{"responses":{"01":"No","02":"No","03":"Yes","03_ages_7":"7","03_ages_8":"8","03_ages_9":"9","04":"No","05":"Yes","05_ages_7":"7","05_ages_8":"8","05_ages_9":"9","06":"No","07":"No","08":"No"},"rt":201391,"item_order":[0,1,2,3,4,5,6,7],"radio_events":[12305.5,147771.59999999963,153156.89999999944,186100,189587.69999999925,196518.2999999998,199012.19999999925,200325.5],"checkbox_events":[157535.69999999925,172178.2999999998,175689.09999999963,191588.69999999925,192341.7999999998,193951.19999999925],"key_events":[],"mouse_events":[12305.5,147771.59999999963,153156.89999999944,157535.69999999925,172178.2999999998,174398.5,175689.09999999963,186100,189587.69999999925,191588.69999999925,192341.7999999998,193186.09999999963,193951.19999999925,196518.2999999998,199012.19999999925,200325.5,201381],"honeypot":0,"survey":"mace","page":2,"trial_type":"survey-mace","trial_index":10,"time_elapsed":1270956,"internal_node_id":"0.0-10.0","task_version":"prescreen-v0.3","browser_interactions":2},{"responses":{"01":"No","02":"No","03":"No","04":"No"},"rt":28249.299999999814,"item_order":[0,1,2,3],"radio_events":[4343.399999999441,9144.399999999441,11125.799999999814,18257.89999999944,26715.5],"checkbox_events":[],"key_events":[],"mouse_events":[392.79999999981374,4343.399999999441,9144.399999999441,11125.799999999814,18257.89999999944,26715.5,28244],"honeypot":0,"survey":"mace","page":3,"trial_type":"survey-mace","trial_index":11,"time_elapsed":1299213,"internal_node_id":"0.0-11.0","task_version":"prescreen-v0.3","browser_interactions":0},{"responses":{"01":"No","02":"No"},"rt":11969.799999999814,"item_order":[0,1],"radio_events":[5546.5999999996275,8280.5],"checkbox_events":[],"key_events":[],"mouse_events":[4544,5546.5999999996275,8280.5,11966.899999999441],"honeypot":0,"survey":"mace","page":4,"trial_type":"survey-mace","trial_index":12,"time_elapsed":1311189,"internal_node_id":"0.0-12.0","task_version":"prescreen-v0.3","browser_interactions":0},{"responses":{"01":"No","02":"No","03":"No","04":"No","05":"No"},"rt":109991,"item_order":[0,1,2,3,4],"radio_events":[100062.29999999981,102345.5,104641.79999999981,106316,108548.70000000019],"checkbox_events":[],"key_events":[],"mouse_events":[100062.29999999981,102345.5,104641.79999999981,106316,108548.70000000019,109984.40000000037],"honeypot":0,"survey":"mace","page":5,"trial_type":"survey-mace","trial_index":13,"time_elapsed":1421184,"internal_node_id":"0.0-13.0","task_version":"prescreen-v0.3","browser_interactions":0},{"responses":{"01":"Yes","01_ages_8":"8","01_ages_9":"9","02":"No","03":"No","04":"No","05":"No"},"rt":55026.700000000186,"item_order":[0,1,2,3,4],"radio_events":[17509.700000000186,41717.299999999814,44635.5,49218.5,52651.700000000186],"checkbox_events":[30946.700000000186,31831.200000000186,34483.200000000186,35676.09999999963],"key_events":[],"mouse_events":[17509.700000000186,30946.700000000186,31831.200000000186,34483.200000000186,35676.09999999963,41717.299999999814,44635.5,49218.5,52651.700000000186,55024],"honeypot":0,"survey":"mace","page":6,"trial_type":"survey-mace","trial_index":14,"time_elapsed":1476218,"internal_node_id":"0.0-14.0","task_version":"prescreen-v0.3","browser_interactions":0},{"responses":{"01":"No","02":"No","03":"No","04":"No","05":"No","06":"No","07":"No"},"rt":28494.200000000186,"item_order":[0,1,2,3,4,5,6],"radio_events":[3607.2999999998137,7514.700000000186,9655.799999999814,19887.799999999814,23557.5,24951.5,27328.89999999944],"checkbox_events":[],"key_events":[],"mouse_events":[3607.2999999998137,7514.700000000186,9655.799999999814,19887.799999999814,21919,23557.5,24951.5,26387.700000000186,27328.89999999944,28485.200000000186],"honeypot":0,"survey":"mace","page":7,"trial_type":"survey-mace","trial_index":15,"time_elapsed":1504717,"internal_node_id":"0.0-15.0","task_version":"prescreen-v0.3","browser_interactions":0},{"responses":{"01":"No","02":"No","03":"No","04":"No"},"rt":51303.5,"item_order":[0,1,2,3],"radio_events":[41247.800000000745,44175.90000000037,47157.90000000037,50121.700000000186],"checkbox_events":[],"key_events":[],"mouse_events":[29720.60000000056,41247.800000000745,44175.90000000037,47157.90000000037,50121.700000000186,51300.10000000056],"honeypot":0,"survey":"mace","page":8,"trial_type":"survey-mace","trial_index":16,"time_elapsed":1556028,"internal_node_id":"0.0-16.0","task_version":"prescreen-v0.3","browser_interactions":0},{"responses":{"01":"Yes","01_ages_1":"1","01_ages_2":"2","01_ages_3":"3","01_ages_4":"4","01_ages_5":"5","01_ages_6":"6","01_ages_7":"7","01_ages_8":"8","01_ages_9":"9","01_ages_10":"10","01_ages_11":"11","01_ages_12":"12","01_ages_13":"13","01_ages_14":"14","01_ages_15":"15","01_ages_16":"16","01_ages_17":"17","01_ages_18":"18","02":"Yes","02_ages_1":"1","02_ages_2":"2","02_ages_3":"3","02_ages_4":"4","02_ages_5":"5","02_ages_6":"6","02_ages_7":"7","02_ages_8":"8","02_ages_9":"9","02_ages_10":"10","02_ages_11":"11","02_ages_12":"12","02_ages_13":"13","02_ages_14":"14","02_ages_15":"15","02_ages_16":"16","02_ages_17":"17","02_ages_18":"18","03":"Yes","03_ages_1":"1","03_ages_2":"2","03_ages_3":"3","03_ages_4":"4","03_ages_5":"5","03_ages_6":"6","03_ages_7":"7","03_ages_8":"8","03_ages_9":"9","03_ages_10":"10","03_ages_11":"11","03_ages_12":"12","03_ages_13":"13","03_ages_14":"14","03_ages_15":"15","03_ages_16":"16","03_ages_17":"17","03_ages_18":"18","04":"Yes","04_ages_13":"13","04_ages_18":"18"},"rt":199818.2999999998,"item_order":[0,1,2,3],"radio_events":[2853.2000000001863,125834.70000000019,152356.7000000002,184107.7999999998],"checkbox_events":[5461.600000000559,6384.799999999814,7450.600000000559,8214.400000000373,9096.299999999814,12127.400000000373,13080.200000000186,13987.900000000373,15623.799999999814,16623.5,17763.700000000186,18777,25230.5,26356.299999999814,27461.799999999814,28489.799999999814,30034.5,31398.10000000056,127710,129863.79999999981,131049.10000000056,132287.2999999998,133210.10000000056,134182.40000000037,135043.5,136240.10000000056,137240.2000000002,138292.40000000037,139153.7000000002,140374.7999999998,141433.90000000037,142810.40000000037,144387.7999999998,145643.10000000056,147758.2000000002,148728.60000000056,153801.40000000037,155205.5,156313.7000000002,157521.10000000056,159112.10000000056,161155.90000000037,162499.90000000037,163500,164607.90000000037,165763.40000000037,167042.7999999998,169229.7000000002,169667.2000000002,170310.7000000002,171608.10000000056,173327.2000000002,174736.40000000037,175970.5,176904.60000000056,178399.90000000037,192161.90000000037,197259.2000000002],"key_events":[],"mouse_events":[2853.2000000001863,5461.600000000559,6384.799999999814,7450.600000000559,8214.400000000373,9096.299999999814,10271.400000000373,11143.299999999814,12127.400000000373,13080.200000000186,13987.900000000373,15623.799999999814,16623.5,17763.700000000186,18777,25230.5,26356.299999999814,27461.799999999814,28489.799999999814,30034.5,31398.10000000056,125834.70000000019,127710,129419.5,129863.79999999981,131049.10000000056,132287.2999999998,133210.10000000056,134182.40000000037,135043.5,136240.10000000056,137240.2000000002,138292.40000000037,139153.7000000002,140374.7999999998,141433.90000000037,142810.40000000037,144387.7999999998,145643.10000000056,146757.2000000002,147758.2000000002,148728.60000000056,152356.7000000002,153801.40000000037,155205.5,156313.7000000002,157521.10000000056,159112.10000000056,161155.90000000037,162499.90000000037,163500,164607.90000000037,165763.40000000037,167042.7999999998,169229.7000000002,169667.2000000002,170310.7000000002,171608.10000000056,173327.2000000002,174736.40000000037,175970.5,176904.60000000056,178399.90000000037,184107.7999999998,192161.90000000037,197259.2000000002,199813.2000000002],"honeypot":0,"survey":"mace","page":9,"trial_type":"survey-mace","trial_index":17,"time_elapsed":1755850,"internal_node_id":"0.0-17.0","task_version":"prescreen-v0.3","browser_interactions":0},{"responses":{"01":"No","02":"No","03":"No","04":"Yes","04_ages_11":"11","04_ages_12":"12","04_ages_13":"13","04_ages_14":"14","05":"No","06":"Yes","06_ages_17":"17","07":"Yes","07_ages_1":"1","07_ages_2":"2","07_ages_3":"3","07_ages_4":"4","07_ages_5":"5","07_ages_6":"6","07_ages_7":"7","07_ages_8":"8","07_ages_9":"9","07_ages_10":"10","07_ages_11":"11","07_ages_12":"12","07_ages_13":"13","07_ages_14":"14","07_ages_15":"15","07_ages_16":"16","07_ages_17":"17","07_ages_18":"18","08":"Yes","08_ages_1":"1","08_ages_2":"2","08_ages_3":"3","08_ages_4":"4","08_ages_5":"5","08_ages_6":"6","08_ages_7":"7","08_ages_8":"8","08_ages_9":"9","08_ages_10":"10","08_ages_11":"11","08_ages_12":"12","08_ages_13":"13","08_ages_14":"14","08_ages_15":"15","08_ages_16":"16","08_ages_17":"17","08_ages_18":"18"},"rt":95438.89999999944,"item_order":[0,1,2,3,4,5,6,7],"radio_events":[5863,8479.299999999814,10770.700000000186,13005.299999999814,36622.89999999944,38307.200000000186,43419.09999999963,72898.29999999981],"checkbox_events":[24654.700000000186,25577.39999999944,26471.799999999814,32960,39961.59999999963,44696.39999999944,45585.89999999944,46665.59999999963,48598.09999999963,50571.799999999814,52226.799999999814,53085.700000000186,54823.200000000186,56337,57657.799999999814,58876.700000000186,59798,60779.200000000186,61712.89999999944,62579,63391,64951.89999999944,70414.29999999981,74668.89999999944,75897.59999999963,76773.89999999944,77508.79999999981,78288.29999999981,78973.79999999981,80350.5,81054.5,81804.20000000019,83318.5,84052.79999999981,84694,85735.89999999944,87978.09999999963,88825.39999999944,89780.20000000019,91783.20000000019,92002.79999999981,92969.20000000019,93847.5],"key_events":[],"mouse_events":[5863,8479.299999999814,10770.700000000186,13005.299999999814,24654.700000000186,25577.39999999944,26471.799999999814,32960,36622.89999999944,38307.200000000186,39961.59999999963,43419.09999999963,44696.39999999944,45585.89999999944,46665.59999999963,47786.39999999944,48598.09999999963,49636.299999999814,50571.799999999814,51462.299999999814,52226.799999999814,53085.700000000186,53947.59999999963,54823.200000000186,56337,57657.799999999814,58876.700000000186,59798,60779.200000000186,61712.89999999944,62579,63391,64545.59999999963,64951.89999999944,65748.29999999981,70414.29999999981,72898.29999999981,74668.89999999944,75897.59999999963,76773.89999999944,77508.79999999981,78288.29999999981,78973.79999999981,79938.20000000019,80350.5,81054.5,81804.20000000019,82898.39999999944,83318.5,84052.79999999981,84694,85735.89999999944,86442.29999999981,87563.5,87978.09999999963,88825.39999999944,89780.20000000019,90501.89999999944,91431.79999999981,91783.20000000019,92002.79999999981,92969.20000000019,93847.5,95435.20000000019],"honeypot":0,"survey":"mace","page":10,"trial_type":"survey-mace","trial_index":18,"time_elapsed":1851299,"internal_node_id":"0.0-18.0","task_version":"prescreen-v0.3","browser_interactions":0,"instructed":0},{"rt":5156.800000000745,"trial_type":"mental-health-alert","trial_index":19,"time_elapsed":1856458,"internal_node_id":"0.0-19.0","task_version":"prescreen-v0.3","interactions":"[{\"event\":\"blur\",\"trial\":3,\"time\":288500},{\"event\":\"focus\",\"trial\":3,\"time\":292235},{\"event\":\"blur\",\"trial\":10,\"time\":1207293},{\"event\":\"focus\",\"trial\":10,\"time\":1213066}]"}]