[{"view_history":[{"page_index":0,"viewing_time":3689.800000190735},{"page_index":1,"viewing_time":4159},{"page_index":2,"viewing_time":4879.099999904633},{"page_index":3,"viewing_time":1307.5}],"rt":14037.400000095367,"trial_type":"instructions","trial_index":0,"time_elapsed":14060,"internal_node_id":"0.0-0.0","task_version":"prescreen-v0.3"},{"rt":21097.800000190735,"responses":{"age":"20","gender-categorical":"Female","gender-free-response":"","ethnicity":"Not Hispanic or Latino","race":["White"],"education":"High school"},"trial_type":"survey-demo","trial_index":1,"time_elapsed":35168,"internal_node_id":"0.0-1.0","task_version":"prescreen-v0.3"},{"responses":{"Q16":"1","Q18":"2","Q19":"1","Q08":"3","Q11":"3","Q20":"1","Q21":"3","Q15":"2","Q12":"2","Q10":"2","Q13":"2","Q03":"2","Q14":"1","Q07":"1","Q05":"1","Q01":"3","Q17":"1","Q04":"3","Q06":"0","Q02":"3","Q09":"1"},"rt":141877.69999980927,"item_order":[15,17,18,7,10,19,20,14,11,9,12,2,13,6,4,0,16,3,5,1,8],"radio_events":[12444.299999952316,17356.39999985695,24661.099999904633,27061.699999809265,30847.099999904633,34523.89999985695,36985.59999990463,42654.39999985695,75673.89999985695,76331.39999985695,80666.5,85281,87590.69999980927,90321.5,96424.29999995232,104713.39999985695,111750.5,114504.5,118377.09999990463,121427.69999980927,123873.29999995232,130080.5,137588.59999990463,140781.5],"key_events":[],"mouse_events":[12444.299999952316,17356.39999985695,23667,24661.099999904633,27061.699999809265,30847.099999904633,34523.89999985695,36985.59999990463,42654.39999985695,69819.5,75673.89999985695,76331.39999985695,80666.5,85281,87590.69999980927,90321.5,96424.29999995232,104713.39999985695,111750.5,114504.5,118377.09999990463,121427.69999980927,123873.29999995232,130080.5,137588.59999990463,140781.5,141872.09999990463],"straightlining":0.38095238095238093,"zigzagging":0.3,"honeypot":0,"survey":"sns","trial_type":"survey-template","trial_index":2,"time_elapsed":177057,"internal_node_id":"0.0-2.0","task_version":"prescreen-v0.3","browser_interactions":0,"infrequency":0},{"responses":{"Q01":"3","Q11":"2","Q03":"3","Q12":"2","Q08":"2","Q06":"2","Q13":"0","Q05":"3","Q10":"2","Q07":"3","Q04":"3","Q09":"2","Q02":"3"},"rt":66712,"item_order":[0,10,2,11,7,5,12,4,9,6,3,8,1],"radio_events":[7180.899999856949,16618.5,19019.799999952316,27535.099999904633,29011.200000047684,35934.700000047684,38236.799999952316,46618,50887.700000047684,53794.200000047684,57494.200000047684,59274.700000047684,62911.39999985695,65714.59999990463],"key_events":[],"mouse_events":[7180.899999856949,16618.5,19019.799999952316,24837.299999952316,27535.099999904633,28105.299999952316,29011.200000047684,35934.700000047684,38236.799999952316,46618,50887.700000047684,53794.200000047684,57494.200000047684,59274.700000047684,62911.39999985695,65061.39999985695,65714.59999990463,66709],"straightlining":0.46153846153846156,"zigzagging":0.6666666666666666,"honeypot":0,"survey":"bisbas","trial_type":"survey-template","trial_index":3,"time_elapsed":243777,"internal_node_id":"0.0-3.0","task_version":"prescreen-v0.3","browser_interactions":0,"infrequency":0},{"responses":{"Q01":"2","Q02":"2","Q03":"3"},"rt":16639.599999904633,"radio_events":[6634,10976.099999904633,15904.399999856949],"key_events":[],"mouse_events":[6634,10976.099999904633,15904.399999856949,16638.099999904633],"survey":"map","page":1,"trial_type":"survey-map","trial_index":4,"time_elapsed":260422,"internal_node_id":"0.0-4.0","task_version":"prescreen-v0.3","browser_interactions":0},{"responses":{"Q04":"4","Q05":"3","Q06":"4"},"rt":18615.099999904633,"radio_events":[7801.099999904633,13230.599999904633,14360.799999952316,17571.700000047684],"key_events":[],"mouse_events":[7801.099999904633,13230.599999904633,14360.799999952316,17571.700000047684,18613.799999952316],"survey":"map","page":2,"trial_type":"survey-map","trial_index":5,"time_elapsed":279043,"internal_node_id":"0.0-5.0","task_version":"prescreen-v0.3","browser_interactions":0},{"responses":{"Q07":"4","Q08":"4","Q09":"2"},"rt":35910.59999990463,"radio_events":[26766,31984.89999985695,35035.39999985695],"key_events":[],"mouse_events":[26766,31984.89999985695,35035.39999985695,35909.199999809265],"survey":"map","page":3,"trial_type":"survey-map","trial_index":6,"time_elapsed":314959,"internal_node_id":"0.0-6.0","task_version":"prescreen-v0.3","browser_interactions":0},{"responses":{"Q10":"3","Q11":"2","Q12":"2","Q13":"2","Q16":"0","Q14":"4","Q15":"3"},"rt":38542.799999952316,"radio_events":[6549,10962.5,14832.299999952316,17778.199999809265,24213.599999904633,32375,35939,37446.59999990463],"key_events":[],"mouse_events":[6549,10962.5,14832.299999952316,17778.199999809265,24213.599999904633,32375,35939,37446.59999990463,38541.199999809265],"survey":"map","page":4,"trial_type":"survey-map","trial_index":7,"time_elapsed":353508,"internal_node_id":"0.0-7.0","task_version":"prescreen-v0.3","browser_interactions":0,"infrequency":0},{"view_history":[{"page_index":0,"viewing_time":3028.2999999523163},{"page_index":1,"viewing_time":4117.799999952316}],"rt":7146.799999952316,"trial_type":"instructions","trial_index":8,"time_elapsed":360656,"internal_node_id":"0.0-8.0","task_version":"prescreen-v0.3"},{"responses":{"01":"No","02":"No","03":"Yes","03_ages_9":"9","04":"No","05":"No","06":"Yes","06_ages_9":"9"},"rt":36569.299999952316,"item_order":[0,1,2,3,4,5],"radio_events":[9117.299999952316,13471.700000047684,16137.599999904633,27988.799999952316,29621.299999952316,33625.5],"checkbox_events":[24092.599999904633,34989.89999985695],"key_events":[],"mouse_events":[0.20000004768371582,9117.299999952316,13471.700000047684,16137.599999904633,24092.599999904633,27988.799999952316,29621.299999952316,33625.5,34989.89999985695,36562],"honeypot":0,"survey":"mace","page":1,"trial_type":"survey-mace","trial_index":9,"time_elapsed":397236,"internal_node_id":"0.0-9.0","task_version":"prescreen-v0.3","browser_interactions":0},{"responses":{"01":"No","02":"No","03":"No","04":"No","05":"No","06":"No","07":"Yes","07_ages_9":"9","07_ages_13":"13","08":"No"},"rt":36832.40000009537,"item_order":[0,1,2,3,4,5,6,7],"radio_events":[2660.7000000476837,5121.900000095367,7371.300000190735,10582.800000190735,12732.100000143051,25260.5,26809.200000047684,35629.300000190735],"checkbox_events":[30173.10000014305,32578.800000190735],"key_events":[],"mouse_events":[2660.7000000476837,5121.900000095367,7371.300000190735,10582.800000190735,12732.100000143051,25260.5,26809.200000047684,29287.200000047684,30173.10000014305,32578.800000190735,35629.300000190735,36824],"honeypot":0,"survey":"mace","page":2,"trial_type":"survey-mace","trial_index":10,"time_elapsed":434075,"internal_node_id":"0.0-10.0","task_version":"prescreen-v0.3","browser_interactions":0},{"responses":{"01":"No","02":"No","03":"No","04":"No"},"rt":16973,"item_order":[0,1,2,3],"radio_events":[3109.5,6664.900000095367,10132,12225.299999952316],"checkbox_events":[],"key_events":[],"mouse_events":[3109.5,6664.900000095367,10132,12225.299999952316,16968.10000014305],"honeypot":0,"survey":"mace","page":3,"trial_type":"survey-mace","trial_index":11,"time_elapsed":451053,"internal_node_id":"0.0-11.0","task_version":"prescreen-v0.3","browser_interactions":0},{"responses":{"01":"No","02":"No"},"rt":11273.299999952316,"item_order":[0,1],"radio_events":[9325.899999856949,10541.299999952316],"checkbox_events":[],"key_events":[],"mouse_events":[9325.899999856949,10541.299999952316,11270.899999856949],"honeypot":0,"survey":"mace","page":4,"trial_type":"survey-mace","trial_index":12,"time_elapsed":462331,"internal_node_id":"0.0-12.0","task_version":"prescreen-v0.3","browser_interactions":0},{"responses":{"01":"No","02":"No","03":"No","04":"No","05":"No"},"rt":24839.799999952316,"item_order":[0,1,2,3,4],"radio_events":[7267,12144.899999856949,16382.399999856949,18584.199999809265,21426.799999952316,24008.599999904633],"checkbox_events":[],"key_events":[],"mouse_events":[7267,12144.899999856949,16382.399999856949,18584.199999809265,21426.799999952316,22981.799999952316,24008.599999904633,24833.89999985695],"honeypot":0,"survey":"mace","page":5,"trial_type":"survey-mace","trial_index":13,"time_elapsed":487178,"internal_node_id":"0.0-13.0","task_version":"prescreen-v0.3","browser_interactions":0},{"responses":{"01":"Yes","01_ages_7":"7","01_ages_8":"8","01_ages_9":"9","01_ages_10":"10","01_ages_11":"11","01_ages_12":"12","02":"Yes","02_ages_7":"7","02_ages_8":"8","02_ages_9":"9","02_ages_10":"10","02_ages_11":"11","02_ages_12":"12","02_ages_17":"17","02_ages_18":"18","03":"Yes","03_ages_17":"17","03_ages_18":"18","04":"Yes","04_ages_12":"12","04_ages_13":"13","04_ages_14":"14","04_ages_15":"15","04_ages_16":"16","04_ages_17":"17","04_ages_18":"18","05":"No"},"rt":69527.29999995232,"item_order":[0,1,2,3,4],"radio_events":[25477.700000047684,41104.40000009537,50831.90000009537,58086.90000009537,68672.90000009537],"checkbox_events":[29569.799999952316,30095,33455.10000014305,34316.90000009537,35904.40000009537,36874.90000009537,42451.799999952316,43025.10000014305,43490.299999952316,43923,44949.40000009537,45695.200000047684,46569.200000047684,47332.10000014305,52855.40000009537,53328.60000014305,54250.299999952316,56491.90000009537,60399.90000009537,61258,62588.799999952316,63166.299999952316,63755.60000014305,65391,65879.70000004768],"key_events":[],"mouse_events":[25477.700000047684,29569.799999952316,30095,33455.10000014305,34316.90000009537,35904.40000009537,36874.90000009537,41104.40000009537,42451.799999952316,43025.10000014305,43490.299999952316,43923,44428.200000047684,44949.40000009537,45695.200000047684,46569.200000047684,47332.10000014305,50831.90000009537,52855.40000009537,53328.60000014305,54250.299999952316,56491.90000009537,58086.90000009537,60399.90000009537,61258,62588.799999952316,63166.299999952316,63755.60000014305,65391,65879.70000004768,68672.90000009537,69523.60000014305],"honeypot":0,"survey":"mace","page":6,"trial_type":"survey-mace","trial_index":14,"time_elapsed":556712,"internal_node_id":"0.0-14.0","task_version":"prescreen-v0.3","browser_interactions":0},{"responses":{"01":"No","02":"No","03":"No","04":"No","05":"No","06":"No","07":"No"},"rt":20448.799999952316,"item_order":[0,1,2,3,4,5,6],"radio_events":[3995.4000000953674,5838.900000095367,10654.799999952316,11517,13281.200000047684,14764.599999904633,19606.099999904633],"checkbox_events":[],"key_events":[],"mouse_events":[3995.4000000953674,5838.900000095367,10654.799999952316,11517,13281.200000047684,14764.599999904633,19606.099999904633,20440.599999904633],"honeypot":0,"survey":"mace","page":7,"trial_type":"survey-mace","trial_index":15,"time_elapsed":577168,"internal_node_id":"0.0-15.0","task_version":"prescreen-v0.3","browser_interactions":0},{"responses":{"01":"No","02":"No","03":"Yes","03_ages_13":"13","03_ages_14":"14","03_ages_15":"15","03_ages_16":"16","04":"No"},"rt":30032.400000095367,"item_order":[0,1,2,3],"radio_events":[9874.799999952316,17211,19744.400000095367,23581.200000047684,29350.299999952316],"checkbox_events":[25064.700000047684,25990.5,26616,27369.799999952316],"key_events":[],"mouse_events":[9874.799999952316,17211,19744.400000095367,23581.200000047684,25064.700000047684,25990.5,26616,27369.799999952316,29350.299999952316,30027.5],"honeypot":0,"survey":"mace","page":8,"trial_type":"survey-mace","trial_index":16,"time_elapsed":607206,"internal_node_id":"0.0-16.0","task_version":"prescreen-v0.3","browser_interactions":0},{"responses":{"01":"Yes","01_ages_1":"1","01_ages_2":"2","01_ages_3":"3","01_ages_4":"4","01_ages_5":"5","01_ages_6":"6","01_ages_7":"7","01_ages_8":"8","01_ages_9":"9","01_ages_10":"10","01_ages_11":"11","01_ages_12":"12","01_ages_13":"13","01_ages_14":"14","01_ages_15":"15","01_ages_16":"16","01_ages_17":"17","01_ages_18":"18","02":"Yes","02_ages_1":"1","02_ages_2":"2","02_ages_3":"3","02_ages_4":"4","02_ages_5":"5","02_ages_6":"6","02_ages_7":"7","02_ages_8":"8","02_ages_9":"9","02_ages_10":"10","02_ages_11":"11","02_ages_12":"12","02_ages_13":"13","02_ages_14":"14","02_ages_15":"15","02_ages_16":"16","02_ages_17":"17","02_ages_18":"18","03":"Yes","03_ages_1":"1","03_ages_2":"2","03_ages_3":"3","03_ages_4":"4","03_ages_5":"5","03_ages_6":"6","03_ages_7":"7","03_ages_8":"8","03_ages_9":"9","03_ages_10":"10","03_ages_11":"11","03_ages_12":"12","03_ages_13":"13","03_ages_14":"14","03_ages_15":"15","03_ages_16":"16","03_ages_17":"17","03_ages_18":"18","04":"Yes","04_ages_17":"17"},"rt":72468,"item_order":[0,1,2,3],"radio_events":[4713.400000095367,25170.299999952316,45886.10000014305,48953.5],"checkbox_events":[8677.100000143051,9413.900000095367,9970.799999952316,10428.799999952316,10917.600000143051,11366.799999952316,11839.799999952316,12882.200000047684,13532.200000047684,14241.299999952316,14827,15538.600000143051,16157.900000095367,16830.700000047684,17424.700000047684,17961.5,18519.299999952316,19248.799999952316,26769.900000095367,27428,28221.400000095367,29102.799999952316,29624.400000095367,30065.700000047684,30530.400000095367,31015.299999952316,31464.299999952316,33468.60000014305,34053.90000009537,34646.700000047684,35180.5,35837.60000014305,36446.40000009537,37433.200000047684,37873.60000014305,38499.40000009537,50420.799999952316,52433.40000009537,56949.799999952316,58766.90000009537,60145.90000009537,60876.10000014305,61698.10000014305,62395.299999952316,63116.700000047684,63702.40000009537,64745.5,65289,65823.90000009537,66367.29999995232,66912.40000009537,67666.40000009537,68179.29999995232,69205.60000014305,69711.5,70212.10000014305,70781.90000009537],"key_events":[],"mouse_events":[4713.400000095367,8677.100000143051,9413.900000095367,9970.799999952316,10428.799999952316,10917.600000143051,11366.799999952316,11839.799999952316,12328.799999952316,12882.200000047684,13532.200000047684,14241.299999952316,14827,15538.600000143051,16157.900000095367,16830.700000047684,17424.700000047684,17961.5,18519.299999952316,19248.799999952316,25170.299999952316,26769.900000095367,27428,28221.400000095367,29102.799999952316,29624.400000095367,30065.700000047684,30530.400000095367,31015.299999952316,31464.299999952316,32915.40000009537,33468.60000014305,34053.90000009537,34646.700000047684,35180.5,35837.60000014305,36446.40000009537,36952.200000047684,37433.200000047684,37873.60000014305,38499.40000009537,45886.10000014305,48953.5,50420.799999952316,52433.40000009537,56949.799999952316,58766.90000009537,59287.90000009537,60145.90000009537,60876.10000014305,61698.10000014305,62395.299999952316,63116.700000047684,63702.40000009537,64248.40000009537,64745.5,65289,65823.90000009537,66367.29999995232,66912.40000009537,67666.40000009537,68179.29999995232,68716.79999995232,69205.60000014305,69711.5,70212.10000014305,70781.90000009537,72465.70000004768],"honeypot":0,"survey":"mace","page":9,"trial_type":"survey-mace","trial_index":17,"time_elapsed":679679,"internal_node_id":"0.0-17.0","task_version":"prescreen-v0.3","browser_interactions":0},{"responses":{"01":"No","02":"No","03":"No","04":"No","05":"No","06":"Yes","06_ages_17":"17","07":"No","08":"Yes","08_ages_1":"1","08_ages_2":"2","08_ages_3":"3","08_ages_4":"4","08_ages_5":"5","08_ages_6":"6","08_ages_7":"7","08_ages_8":"8","08_ages_9":"9","08_ages_10":"10","08_ages_11":"11","08_ages_12":"12","08_ages_13":"13","08_ages_14":"14","08_ages_15":"15","08_ages_16":"16","08_ages_17":"17","08_ages_18":"18"},"rt":50382.40000009537,"item_order":[0,1,2,3,4,5,6,7],"radio_events":[2161.2000000476837,3163,5775.599999904633,8040.799999952316,15437.799999952316,18463,22763.900000095367,32357.099999904633],"checkbox_events":[19948.200000047684,36217.299999952316,37697,39188,39708.90000009537,40246.09999990463,40719,41183.90000009537,42334,42847.09999990463,43753,44506.5,45131.799999952316,45785.5,46649.5,47235.90000009537,48374.59999990463,48959.700000047684,49489.40000009537],"key_events":[],"mouse_events":[2161.2000000476837,3163,5775.599999904633,8040.799999952316,15437.799999952316,18463,19948.200000047684,22763.900000095367,32357.099999904633,36217.299999952316,36867,37697,39188,39708.90000009537,40246.09999990463,40719,41183.90000009537,41861.59999990463,42334,42847.09999990463,43753,44506.5,45131.799999952316,45785.5,46649.5,47235.90000009537,47741.5,48374.59999990463,48959.700000047684,49489.40000009537,50377.59999990463],"honeypot":0,"survey":"mace","page":10,"trial_type":"survey-mace","trial_index":18,"time_elapsed":730069,"internal_node_id":"0.0-18.0","task_version":"prescreen-v0.3","browser_interactions":0,"instructed":0},{"rt":5056.299999952316,"trial_type":"mental-health-alert","trial_index":19,"time_elapsed":735128,"internal_node_id":"0.0-19.0","task_version":"prescreen-v0.3","interactions":"[]"}]