[{"view_history":[{"page_index":0,"viewing_time":4870.799999982119},{"page_index":1,"viewing_time":4491.5},{"page_index":2,"viewing_time":52186.40000000596},{"page_index":3,"viewing_time":1742.5}],"rt":63293.39999997616,"trial_type":"instructions","trial_index":0,"time_elapsed":63312,"internal_node_id":"0.0-0.0","task_version":"prescreen-v0.3"},{"rt":41980,"responses":{"age":"25","gender-categorical":"Male","gender-free-response":"","ethnicity":"Not Hispanic or Latino","race":["Black or African American"],"education":"Some college","siblings":"2"},"trial_type":"survey-demo","trial_index":1,"time_elapsed":105308,"internal_node_id":"0.0-1.0","task_version":"prescreen-v0.3"},{"responses":{"Q10":"3","Q04":"3","Q18":"1","Q11":"3","Q02":"3","Q14":"2","Q06":"3","Q16":"3","Q03":"3","Q12":"0","Q05":"1","Q09":"3","Q19":"2","Q17":"3","Q13":"2","Q21":"3","Q15":"3","Q20":"3","Q07":"3","Q08":"3","Q01":"3"},"rt":181821.89999997616,"item_order":[9,3,17,10,1,13,5,15,2,11,4,8,18,16,12,20,14,19,6,7,0],"radio_events":[25457.69999998808,32751.19999998808,46775.19999998808,49546.5,56317.29999998212,106507.19999998808,111595.09999999404,118643.59999999404,120486.39999997616,127348.09999999404,135107.39999997616,138943.39999997616,146440.79999998212,150602.29999998212,155482.29999998212,157937.69999998808,163516.29999998212,167454.5,172785.29999998212,178545.09999999404,180511.79999998212],"key_events":[],"mouse_events":[25457.69999998808,32751.19999998808,45279,46775.19999998808,49546.5,52845.89999997616,56317.29999998212,99494.5,106507.19999998808,109842.39999997616,111595.09999999404,118643.59999999404,120486.39999997616,126340.29999998212,127348.09999999404,135107.39999997616,138943.39999997616,146440.79999998212,149268.69999998808,150602.29999998212,155482.29999998212,157937.69999998808,163516.29999998212,166437.39999997616,167454.5,172785.29999998212,178545.09999999404,180511.79999998212,181815.59999999404],"straightlining":0.7142857142857143,"zigzagging":0.4,"honeypot":0,"survey":"sns","trial_type":"survey-template","trial_index":2,"time_elapsed":287150,"internal_node_id":"0.0-2.0","task_version":"prescreen-v0.3","browser_interactions":2,"infrequency":0},{"responses":{"Q01":"2","Q03":"0","Q12":"2","Q09":"2","Q13":"0","Q02":"0","Q05":"2","Q08":"2","Q11":"2","Q04":"2","Q06":"2","Q07":"0","Q10":"2"},"rt":85646.29999998212,"item_order":[0,2,11,8,12,1,4,7,10,3,5,6,9],"radio_events":[3782.9000000059605,18317.90000000596,25514.90000000596,29032.90000000596,32876.5,39164.79999998212,44290.90000000596,48596.90000000596,67172.90000000596,71214.5,75649.09999999404,80065.79999998212,84191.90000000596],"key_events":[],"mouse_events":[3782.9000000059605,17128.19999998808,18317.90000000596,24432.59999999404,25514.90000000596,29032.90000000596,32876.5,36939.09999999404,38181.79999998212,39164.79999998212,42819.09999999404,44290.90000000596,48596.90000000596,67172.90000000596,71214.5,75649.09999999404,80065.79999998212,84191.90000000596,85642.79999998212],"straightlining":0.6923076923076923,"zigzagging":0,"honeypot":0,"survey":"bisbas","trial_type":"survey-template","trial_index":3,"time_elapsed":372821,"internal_node_id":"0.0-3.0","task_version":"prescreen-v0.3","browser_interactions":0,"infrequency":0},{"responses":{"Q01":"0","Q02":"0","Q03":"0"},"rt":20834,"radio_events":[6982.800000011921,11046.300000011921,19087.09999999404],"key_events":[],"mouse_events":[6982.800000011921,11046.300000011921,19087.09999999404,20832.09999999404],"survey":"map","page":1,"trial_type":"survey-map","trial_index":4,"time_elapsed":393678,"internal_node_id":"0.0-4.0","task_version":"prescreen-v0.3","browser_interactions":0},{"responses":{"Q04":"3","Q05":"3","Q06":"2"},"rt":37599.90000000596,"radio_events":[22913,32360.40000000596,36025.79999998212],"key_events":[],"mouse_events":[22913,32360.40000000596,36025.79999998212,37598.29999998212],"survey":"map","page":2,"trial_type":"survey-map","trial_index":5,"time_elapsed":431298,"internal_node_id":"0.0-5.0","task_version":"prescreen-v0.3","browser_interactions":0},{"responses":{"Q07":"0","Q08":"0","Q09":"0"},"rt":19196.09999999404,"radio_events":[7146.5999999940395,14318.90000000596,17662.59999999404],"key_events":[],"mouse_events":[6031.699999988079,7146.5999999940395,13171.199999988079,14318.90000000596,17662.59999999404,19194.19999998808],"survey":"map","page":3,"trial_type":"survey-map","trial_index":6,"time_elapsed":450513,"internal_node_id":"0.0-6.0","task_version":"prescreen-v0.3","browser_interactions":0},{"responses":{"Q10":"0","Q11":"0","Q12":"1","Q13":"3","Q16":"0","Q14":"2","Q15":"2"},"rt":63050.89999997616,"radio_events":[8279.899999976158,25297.59999999404,33487,41506.89999997616,43348.19999998808,48856.19999998808,54988.39999997616,61574.39999997616],"key_events":[],"mouse_events":[8279.899999976158,25297.59999999404,33487,41506.89999997616,43348.19999998808,48856.19999998808,54988.39999997616,61574.39999997616,63047.79999998212],"survey":"map","page":4,"trial_type":"survey-map","trial_index":7,"time_elapsed":513586,"internal_node_id":"0.0-7.0","task_version":"prescreen-v0.3","browser_interactions":0,"infrequency":0},{"view_history":[{"page_index":0,"viewing_time":3595.4000000059605},{"page_index":1,"viewing_time":10796.59999999404}],"rt":14394.09999999404,"trial_type":"instructions","trial_index":8,"time_elapsed":527996,"internal_node_id":"0.0-8.0","task_version":"prescreen-v0.3"},{"responses":{"01":"Yes","01_ages_15":"15","01_ages_16":"16","01_ages_17":"17","01_ages_18":"18","02":"No","03":"No","04":"No","05":"No","06":"Yes","06_ages_13":"13"},"rt":67319.79999998212,"item_order":[0,1,2,3,4,5],"radio_events":[19652,21662.29999998212,31547.29999998212,34631.90000000596,42368.5,50843.40000000596,63869.69999998808],"checkbox_events":[44334.69999998808,54839.69999998808,55774.40000000596,57074.40000000596,58175.19999998808],"key_events":[],"mouse_events":[3.5999999940395355,19652,21662.29999998212,31547.29999998212,34631.90000000596,42368.5,44334.69999998808,50843.40000000596,54839.69999998808,55774.40000000596,57074.40000000596,58175.19999998808,63869.69999998808,67310.79999998212],"honeypot":0,"survey":"mace","page":1,"trial_type":"survey-mace","trial_index":9,"time_elapsed":595337,"internal_node_id":"0.0-9.0","task_version":"prescreen-v0.3","browser_interactions":0},{"responses":{"01":"No","02":"No","03":"No","04":"No","05":"No","06":"No","07":"No","08":"No"},"rt":36169.69999998808,"item_order":[0,1,2,3,4,5,6,7],"radio_events":[5560.699999988079,11291.199999988079,13931.699999988079,16532.09999999404,23022.29999998212,28139.19999998808,31562.399999976158,34730.79999998212],"checkbox_events":[],"key_events":[],"mouse_events":[5560.699999988079,11291.199999988079,13931.699999988079,16532.09999999404,23022.29999998212,28139.19999998808,31562.399999976158,34730.79999998212,36158.09999999404],"honeypot":0,"survey":"mace","page":2,"trial_type":"survey-mace","trial_index":10,"time_elapsed":631533,"internal_node_id":"0.0-10.0","task_version":"prescreen-v0.3","browser_interactions":0},{"responses":{"01":"No","02":"No","03":"No","04":"No"},"rt":11102.40000000596,"item_order":[0,1,2,3],"radio_events":[5116.0999999940395,6878,8218.699999988079,9675.59999999404],"checkbox_events":[],"key_events":[],"mouse_events":[5116.0999999940395,6878,8218.699999988079,9675.59999999404,11096.199999988079],"honeypot":0,"survey":"mace","page":3,"trial_type":"survey-mace","trial_index":11,"time_elapsed":642648,"internal_node_id":"0.0-11.0","task_version":"prescreen-v0.3","browser_interactions":0},{"responses":{"01":"No","02":"No"},"rt":13201.200000017881,"item_order":[0,1],"radio_events":[8057.5,11846.300000011921],"checkbox_events":[],"key_events":[],"mouse_events":[3538.9000000059605,8057.5,11846.300000011921,13197.800000011921],"honeypot":0,"survey":"mace","page":4,"trial_type":"survey-mace","trial_index":12,"time_elapsed":655868,"internal_node_id":"0.0-12.0","task_version":"prescreen-v0.3","browser_interactions":0},{"responses":{"01":"No","02":"No","03":"No","04":"No","05":"No"},"rt":25372.600000023842,"item_order":[0,1,2,3,4],"radio_events":[10778.40000000596,14606.90000000596,18208.100000023842,22778.100000023842,24052],"checkbox_events":[],"key_events":[],"mouse_events":[10778.40000000596,14606.90000000596,18208.100000023842,22778.100000023842,24052,25364.90000000596],"honeypot":0,"survey":"mace","page":5,"trial_type":"survey-mace","trial_index":13,"time_elapsed":681264,"internal_node_id":"0.0-13.0","task_version":"prescreen-v0.3","browser_interactions":0},{"responses":{"01":"No","02":"No","03":"No","04":"No","05":"No"},"rt":15545.699999988079,"item_order":[0,1,2,3,4],"radio_events":[6825.4000000059605,8352,9938.799999982119,11225.59999999404,12915.09999999404],"checkbox_events":[],"key_events":[],"mouse_events":[6825.4000000059605,8352,9938.799999982119,11225.59999999404,12915.09999999404,15538.40000000596],"honeypot":0,"survey":"mace","page":6,"trial_type":"survey-mace","trial_index":14,"time_elapsed":696830,"internal_node_id":"0.0-14.0","task_version":"prescreen-v0.3","browser_interactions":0},{"responses":{"01":"No","02":"No","03":"No","04":"No","05":"No","06":"No","07":"No"},"rt":17629.09999999404,"item_order":[0,1,2,3,4,5,6],"radio_events":[5757,7264,8757.899999976158,11222,13103.199999988079,14378.09999999404,15948.799999982119],"checkbox_events":[],"key_events":[],"mouse_events":[5757,7264,8757.899999976158,11222,13103.199999988079,14378.09999999404,15948.799999982119,17618.69999998808],"honeypot":0,"survey":"mace","page":7,"trial_type":"survey-mace","trial_index":15,"time_elapsed":714484,"internal_node_id":"0.0-15.0","task_version":"prescreen-v0.3","browser_interactions":0},{"responses":{"01":"No","02":"No","03":"No","04":"No"},"rt":46185.5,"item_order":[0,1,2,3],"radio_events":[14917,29047.5,36115.10000002384,38762,40859.70000001788,44711.30000001192],"checkbox_events":[],"key_events":[],"mouse_events":[14917,29047.5,36115.10000002384,38762,40859.70000001788,44711.30000001192,46182],"honeypot":0,"survey":"mace","page":8,"trial_type":"survey-mace","trial_index":16,"time_elapsed":760685,"internal_node_id":"0.0-16.0","task_version":"prescreen-v0.3","browser_interactions":0},{"responses":{"01":"Yes","01_ages_1":"1","01_ages_2":"2","01_ages_3":"3","01_ages_4":"4","01_ages_5":"5","01_ages_6":"6","01_ages_7":"7","01_ages_8":"8","01_ages_9":"9","01_ages_10":"10","01_ages_11":"11","01_ages_12":"12","01_ages_13":"13","01_ages_14":"14","01_ages_15":"15","01_ages_16":"16","01_ages_17":"17","01_ages_18":"18","02":"No","03":"Yes","03_ages_1":"1","03_ages_2":"2","03_ages_3":"3","03_ages_4":"4","03_ages_5":"5","03_ages_6":"6","03_ages_7":"7","03_ages_8":"8","03_ages_9":"9","03_ages_10":"10","03_ages_11":"11","03_ages_12":"12","03_ages_13":"13","03_ages_14":"14","03_ages_15":"15","03_ages_16":"16","03_ages_17":"17","03_ages_18":"18","04":"Yes","04_ages_13":"13","04_ages_14":"14","04_ages_15":"15","04_ages_16":"16","04_ages_17":"17","04_ages_18":"18"},"rt":81583.40000000596,"item_order":[0,1,2,3],"radio_events":[6911.9000000059605,35072.59999999404,40484.80000001192,68432.09999999404],"checkbox_events":[11677.5,12956,14059.09999999404,15502.800000011921,17058.30000001192,18229.09999999404,19348,20311.30000001192,21707.20000001788,23121.59999999404,24082.40000000596,25014.09999999404,25825.30000001192,26633.09999999404,28171.59999999404,29043.09999999404,29788.80000001192,30564.20000001788,43063.30000001192,44913.20000001788,45812.40000000596,46987.5,47840.40000000596,48693.5,49686.20000001788,50537.90000000596,53369.5,54815.90000000596,55851.40000000596,57584.80000001192,58389.59999999404,59475.20000001788,60410.70000001788,61218.90000000596,62493.59999999404,63702.20000001788,72728.59999999404,74672,75313.40000000596,75902.20000001788,76912.30000001192,78061.70000001788,79039.80000001192,80096.09999999404],"key_events":[],"mouse_events":[6911.9000000059605,11269.5,11677.5,12956,14059.09999999404,15502.800000011921,17058.30000001192,18229.09999999404,19348,20311.30000001192,21707.20000001788,23121.59999999404,24082.40000000596,25014.09999999404,25825.30000001192,26633.09999999404,28171.59999999404,29043.09999999404,29788.80000001192,30564.20000001788,35072.59999999404,38998.30000001192,40484.80000001192,43063.30000001192,43828.80000001192,44913.20000001788,45812.40000000596,46987.5,47840.40000000596,48693.5,49686.20000001788,50537.90000000596,52893.80000001192,53369.5,54815.90000000596,55851.40000000596,56752.80000001192,57584.80000001192,58389.59999999404,59475.20000001788,60410.70000001788,61218.90000000596,62493.59999999404,63702.20000001788,68432.09999999404,72728.59999999404,74152.80000001192,74672,75313.40000000596,75902.20000001788,76912.30000001192,78061.70000001788,79039.80000001192,80096.09999999404,81577.59999999404],"honeypot":0,"survey":"mace","page":9,"trial_type":"survey-mace","trial_index":17,"time_elapsed":842283,"internal_node_id":"0.0-17.0","task_version":"prescreen-v0.3","browser_interactions":0},{"responses":{"01":"No","02":"No","03":"No","04":"No","05":"No","06":"Yes","06_ages_17":"17","07":"Yes","07_ages_1":"1","07_ages_2":"2","07_ages_3":"3","07_ages_4":"4","07_ages_5":"5","07_ages_6":"6","07_ages_7":"7","07_ages_8":"8","07_ages_9":"9","07_ages_10":"10","07_ages_11":"11","07_ages_12":"12","07_ages_13":"13","07_ages_14":"14","07_ages_15":"15","07_ages_16":"16","07_ages_17":"17","07_ages_18":"18","08":"Yes","08_ages_12":"12","08_ages_13":"13","08_ages_14":"14","08_ages_15":"15","08_ages_16":"16","08_ages_17":"17","08_ages_18":"18"},"rt":68750.19999998808,"item_order":[0,1,2,3,4,5,6,7],"radio_events":[7061.799999982119,9776.59999999404,12403.399999976158,14144.899999976158,18558.5,20894.59999999404,28438.59999999404,56473.39999997616],"checkbox_events":[23000.09999999404,33256.69999998808,34741,35712,36495.5,37251.89999997616,38041.19999998808,39607.09999999404,40444.29999998212,41678.59999999404,42669.79999998212,43477.69999998808,44327.39999997616,45088.19999998808,45926.5,47141.29999998212,48447.69999998808,50445.19999998808,51719.39999997616,58101.59999999404,59840.69999998808,60634.89999997616,61610.89999997616,62447.79999998212,64018.09999999404,64913.59999999404],"key_events":[],"mouse_events":[7061.799999982119,9776.59999999404,12403.399999976158,14144.899999976158,18558.5,20894.59999999404,23000.09999999404,28438.59999999404,33256.69999998808,34741,35712,36495.5,37251.89999997616,38041.19999998808,39607.09999999404,40444.29999998212,41678.59999999404,42669.79999998212,43477.69999998808,44327.39999997616,45088.19999998808,45926.5,47141.29999998212,48447.69999998808,49487.19999998808,50445.19999998808,51719.39999997616,55156.29999998212,56473.39999997616,58101.59999999404,59840.69999998808,60634.89999997616,61610.89999997616,62447.79999998212,64018.09999999404,64913.59999999404,68738.5],"honeypot":0,"survey":"mace","page":10,"trial_type":"survey-mace","trial_index":18,"time_elapsed":911051,"internal_node_id":"0.0-18.0","task_version":"prescreen-v0.3","browser_interactions":0,"instructed":0},{"rt":8614.799999982119,"trial_type":"mental-health-alert","trial_index":19,"time_elapsed":919675,"internal_node_id":"0.0-19.0","task_version":"prescreen-v0.3","interactions":"[{\"event\":\"blur\",\"trial\":0,\"time\":27243},{\"event\":\"focus\",\"trial\":0,\"time\":53505},{\"event\":\"blur\",\"trial\":2,\"time\":179096},{\"event\":\"focus\",\"trial\":2,\"time\":185875}]"}]