[{"view_history":[{"page_index":0,"viewing_time":7857.600000023842},{"page_index":1,"viewing_time":15413.5},{"page_index":2,"viewing_time":8992},{"page_index":3,"viewing_time":2185.8000000715256}],"rt":34449.800000071526,"trial_type":"instructions","trial_index":0,"time_elapsed":34459,"internal_node_id":"0.0-0.0","task_version":"prescreen-v0.3"},{"rt":41084.199999928474,"responses":{"age":"42","gender-categorical":"Male","gender-free-response":"","ethnicity":"Not Hispanic or Latino","race":["White"],"education":"Associate degree","siblings":"2"},"trial_type":"survey-demo","trial_index":1,"time_elapsed":75551,"internal_node_id":"0.0-1.0","task_version":"prescreen-v0.3"},{"responses":{"Q19":"1","Q01":"1","Q14":"2","Q09":"0","Q05":"0","Q13":"1","Q17":"0","Q15":"2","Q11":"1","Q21":"2","Q07":"0","Q10":"1","Q12":"1","Q18":"2","Q20":"0","Q08":"2","Q03":"1","Q04":"0","Q02":"0","Q16":"1","Q06":"0"},"rt":256263.70000004768,"item_order":[18,0,13,8,4,12,16,14,10,20,6,9,11,17,19,7,2,3,1,15,5],"radio_events":[24398.600000023842,32500.5,38712.200000047684,43940.10000002384,56143.90000009537,61674.300000071526,67784.20000004768,78294,83716.10000002384,86006.20000004768,93060,94816.30000007153,106855.80000007153,115980.20000004768,147911.80000007153,188330,193348.10000002384,206664.10000002384,212235.90000009537,218320,238030.10000002384,247910.30000007153,255310.70000004768],"key_events":[],"mouse_events":[24398.600000023842,32500.5,38712.200000047684,43940.10000002384,56143.90000009537,61674.300000071526,66684.20000004768,67784.20000004768,78294,83716.10000002384,86006.20000004768,93060,94816.30000007153,106855.80000007153,115980.20000004768,147911.80000007153,188330,193348.10000002384,206664.10000002384,212235.90000009537,218320,236962.20000004768,238030.10000002384,247910.30000007153,254089.80000007153,255310.70000004768,256261.80000007153],"straightlining":0.38095238095238093,"zigzagging":0.55,"honeypot":0,"survey":"sns","trial_type":"survey-template","trial_index":2,"time_elapsed":331822,"internal_node_id":"0.0-2.0","task_version":"prescreen-v0.3","browser_interactions":0,"infrequency":0.5},{"responses":{"Q10":"2","Q05":"3","Q06":"3","Q13":"0","Q08":"2","Q12":"3","Q02":"2","Q01":"2","Q03":"2","Q09":"3","Q11":"3","Q04":"2","Q07":"3"},"rt":139729,"item_order":[9,4,5,12,7,11,1,0,2,8,10,3,6],"radio_events":[9567.600000023842,15660.100000023842,23411.799999952316,41354,48087.799999952316,53461.60000002384,58835.799999952316,90055.5,92050.79999995232,104707.39999997616,111885.79999995232,126773.89999997616,135503.79999995232,139025.89999997616],"key_events":[],"mouse_events":[9567.600000023842,15660.100000023842,23411.799999952316,41354,48087.799999952316,53461.60000002384,58835.799999952316,79450.29999995232,90055.5,92050.79999995232,104707.39999997616,111885.79999995232,126773.89999997616,135503.79999995232,139025.89999997616,139727.79999995232],"straightlining":0.46153846153846156,"zigzagging":0.5833333333333334,"honeypot":0,"survey":"bisbas","trial_type":"survey-template","trial_index":3,"time_elapsed":471555,"internal_node_id":"0.0-3.0","task_version":"prescreen-v0.3","browser_interactions":0,"infrequency":0},{"responses":{"Q01":"4","Q02":"4","Q03":"4"},"rt":51492.199999928474,"radio_events":[8483.799999952316,41665.199999928474,43969.39999997616,50749.199999928474],"key_events":[],"mouse_events":[8483.799999952316,41665.199999928474,43969.39999997616,50749.199999928474,51491.39999997616],"survey":"map","page":1,"trial_type":"survey-map","trial_index":4,"time_elapsed":523050,"internal_node_id":"0.0-4.0","task_version":"prescreen-v0.3","browser_interactions":0},{"responses":{"Q04":"4","Q05":"2","Q06":"2"},"rt":86289.60000002384,"radio_events":[10524.700000047684,13744.5,36900.60000002384,85598.89999997616],"key_events":[],"mouse_events":[10524.700000047684,13744.5,36900.60000002384,85598.89999997616,86288.60000002384],"survey":"map","page":2,"trial_type":"survey-map","trial_index":5,"time_elapsed":609342,"internal_node_id":"0.0-5.0","task_version":"prescreen-v0.3","browser_interactions":0},{"responses":{"Q07":"4","Q08":"0","Q09":"2"},"rt":42995.89999997616,"radio_events":[19173.300000071526,35005.39999997616,41843.200000047684],"key_events":[],"mouse_events":[19173.300000071526,20527.100000023842,35005.39999997616,41843.200000047684,42995],"survey":"map","page":3,"trial_type":"survey-map","trial_index":6,"time_elapsed":652340,"internal_node_id":"0.0-6.0","task_version":"prescreen-v0.3","browser_interactions":0},{"responses":{"Q10":"4","Q11":"4","Q12":"0","Q13":"1","Q16":"0","Q14":"3","Q15":"2"},"rt":48635.5,"radio_events":[10840.199999928474,15487,17356.399999976158,22774.100000023842,27762.199999928474,34156.199999928474,40032.10000002384,40960.39999997616,47902.10000002384],"key_events":[],"mouse_events":[10840.199999928474,15487,17356.399999976158,22774.100000023842,27762.199999928474,34156.199999928474,40032.10000002384,40960.39999997616,47902.10000002384,48634.299999952316],"survey":"map","page":4,"trial_type":"survey-map","trial_index":7,"time_elapsed":700978,"internal_node_id":"0.0-7.0","task_version":"prescreen-v0.3","browser_interactions":0,"infrequency":0},{"view_history":[{"page_index":0,"viewing_time":28170.799999952316},{"page_index":1,"viewing_time":4496.400000095367}],"rt":32668,"trial_type":"instructions","trial_index":8,"time_elapsed":733647,"internal_node_id":"0.0-8.0","task_version":"prescreen-v0.3"},{"responses":{"01":"No","01_ages_5":"5","01_ages_6":"6","01_ages_7":"7","01_ages_8":"8","01_ages_9":"9","01_ages_10":"10","01_ages_11":"11","01_ages_12":"12","01_ages_13":"13","01_ages_14":"14","01_ages_15":"15","02":"No","02_ages_4":"4","02_ages_5":"5","02_ages_6":"6","02_ages_7":"7","02_ages_8":"8","02_ages_9":"9","02_ages_10":"10","02_ages_11":"11","02_ages_12":"12","02_ages_13":"13","02_ages_14":"14","02_ages_15":"15","02_ages_16":"16","02_ages_17":"17","02_ages_18":"18","03":"No","03_ages_5":"5","03_ages_6":"6","03_ages_7":"7","03_ages_8":"8","03_ages_9":"9","03_ages_10":"10","04":"No","05":"No","06":"No"},"rt":130333.30000007153,"item_order":[0,1,2,3,4,5],"radio_events":[29195.400000095367,69015,91224.90000009537,116788.40000009537,120010.40000009537,121570.70000004768,124246.90000009537,126845,129566.80000007153],"checkbox_events":[33951.800000071526,35584.90000009537,36059.10000002384,36795.40000009537,37454.90000009537,38820.60000002384,45082.800000071526,45819.300000071526,46568.90000009537,47364.40000009537,48238.800000071526,77364.90000009537,77844.90000009537,78451.5,79090.5,80002.40000009537,80692.80000007153,81173,81774.70000004768,82337.10000002384,83923.40000009537,84442.60000002384,85080.40000009537,85527.30000007153,86040.60000002384,86554.5,95770.70000004768,96432.5,97080.40000009537,97679.30000007153,98246.5,98952.20000004768],"key_events":[],"mouse_events":[1,29195.400000095367,33951.800000071526,35584.90000009537,36059.10000002384,36795.40000009537,37454.90000009537,38820.60000002384,45082.800000071526,45819.300000071526,46568.90000009537,47364.40000009537,48238.800000071526,69015,77364.90000009537,77844.90000009537,78451.5,79090.5,80002.40000009537,80692.80000007153,81173,81774.70000004768,82337.10000002384,83923.40000009537,84442.60000002384,85080.40000009537,85527.30000007153,86040.60000002384,86554.5,91224.90000009537,95770.70000004768,96432.5,97080.40000009537,97679.30000007153,98246.5,98952.20000004768,116788.40000009537,120010.40000009537,121570.70000004768,124246.90000009537,126845,129566.80000007153,130330.70000004768],"honeypot":0,"survey":"mace","page":1,"trial_type":"survey-mace","trial_index":9,"time_elapsed":863989,"internal_node_id":"0.0-9.0","task_version":"prescreen-v0.3","browser_interactions":0},{"responses":{"01":"Yes","01_ages_8":"8","01_ages_10":"10","01_ages_13":"13","01_ages_14":"14","02":"No","03":"Yes","03_ages_1":"1","03_ages_2":"2","03_ages_3":"3","03_ages_4":"4","03_ages_5":"5","03_ages_6":"6","03_ages_7":"7","03_ages_8":"8","03_ages_9":"9","03_ages_10":"10","03_ages_11":"11","03_ages_12":"12","04":"No","05":"Yes","05_ages_4":"4","05_ages_5":"5","05_ages_6":"6","05_ages_7":"7","05_ages_8":"8","05_ages_9":"9","05_ages_10":"10","05_ages_11":"11","05_ages_12":"12","05_ages_13":"13","05_ages_14":"14","05_ages_15":"15","06":"No","07":"No","08":"No"},"rt":162262.5,"item_order":[0,1,2,3,4,5,6,7],"radio_events":[29845.399999976158,44767.299999952316,61213.5,90987.10000002384,142069,155661.29999995232,157995.5,161679.29999995232],"checkbox_events":[32933.199999928474,35151.10000002384,36087.39999997616,38017.299999952316,62895.60000002384,63543.39999997616,65253.10000002384,65949,76073.5,76749.29999995232,77243,78114.89999997616,82351.10000002384,83425.29999995232,84001.19999992847,84723.29999995232,144581.29999995232,145065,145513.19999992847,146149.10000002384,146609.89999997616,147255.5,147915.5,148617.39999997616,149233.10000002384,149657,150233.10000002384,150897.29999995232],"key_events":[],"mouse_events":[29845.399999976158,32933.199999928474,35151.10000002384,36087.39999997616,38017.299999952316,44767.299999952316,61213.5,62895.60000002384,63543.39999997616,64160.799999952316,64839.60000002384,65253.10000002384,65949,76073.5,76749.29999995232,77243,78114.89999997616,82351.10000002384,83425.29999995232,84001.19999992847,84723.29999995232,89534.89999997616,90987.10000002384,142069,144581.29999995232,145065,145513.19999992847,146149.10000002384,146609.89999997616,147255.5,147915.5,148617.39999997616,149233.10000002384,149657,150233.10000002384,150897.29999995232,155661.29999995232,157995.5,161679.29999995232,162259.39999997616],"honeypot":0,"survey":"mace","page":2,"trial_type":"survey-mace","trial_index":10,"time_elapsed":1026256,"internal_node_id":"0.0-10.0","task_version":"prescreen-v0.3","browser_interactions":0},{"responses":{"01":"Yes","01_ages_5":"5","01_ages_6":"6","01_ages_7":"7","01_ages_8":"8","01_ages_9":"9","01_ages_10":"10","01_ages_11":"11","01_ages_12":"12","02":"No","03":"No","04":"No"},"rt":23589.799999952316,"item_order":[0,1,2,3],"radio_events":[6602.600000023842,19394.5,21363.100000023842,23188.600000023842],"checkbox_events":[8860.799999952316,10519.200000047684,11005.299999952316,11405,12248.600000023842,12675.100000023842,13200.899999976158,13666.600000023842,14488.799999952316,15007],"key_events":[],"mouse_events":[6602.600000023842,8860.799999952316,9486.799999952316,10519.200000047684,11005.299999952316,11405,12248.600000023842,12675.100000023842,13200.899999976158,13666.600000023842,14488.799999952316,15007,19394.5,21363.100000023842,23188.600000023842,23587.100000023842],"honeypot":0,"survey":"mace","page":3,"trial_type":"survey-mace","trial_index":11,"time_elapsed":1049849,"internal_node_id":"0.0-11.0","task_version":"prescreen-v0.3","browser_interactions":0},{"responses":{"01":"No","02":"No"},"rt":5916.200000047684,"item_order":[0,1],"radio_events":[3777.600000023842,4923.200000047684],"checkbox_events":[],"key_events":[],"mouse_events":[3777.600000023842,4923.200000047684,5915.100000023842],"honeypot":0,"survey":"mace","page":4,"trial_type":"survey-mace","trial_index":12,"time_elapsed":1055768,"internal_node_id":"0.0-12.0","task_version":"prescreen-v0.3","browser_interactions":0},{"responses":{"01":"No","02":"No","03":"No","04":"No","05":"No"},"rt":20729.300000071526,"item_order":[0,1,2,3,4],"radio_events":[6549.200000047684,10402.800000071526,13676.600000023842,17117.200000047684,20006.700000047684],"checkbox_events":[],"key_events":[],"mouse_events":[6549.200000047684,10402.800000071526,13676.600000023842,17117.200000047684,20006.700000047684,20727.100000023842],"honeypot":0,"survey":"mace","page":5,"trial_type":"survey-mace","trial_index":13,"time_elapsed":1076500,"internal_node_id":"0.0-13.0","task_version":"prescreen-v0.3","browser_interactions":0},{"responses":{"01":"No","02":"No","03":"No","04":"No","05":"No"},"rt":34329.59999990463,"item_order":[0,1,2,3,4],"radio_events":[4705.399999976158,7775.399999976158,26761.199999928474,29925.699999928474,33697.299999952316],"checkbox_events":[],"key_events":[],"mouse_events":[4705.399999976158,7775.399999976158,26761.199999928474,29925.699999928474,32895.89999997616,33697.299999952316,34327.199999928474],"honeypot":0,"survey":"mace","page":6,"trial_type":"survey-mace","trial_index":14,"time_elapsed":1110833,"internal_node_id":"0.0-14.0","task_version":"prescreen-v0.3","browser_interactions":0},{"responses":{"01":"No","02":"Yes","02_ages_4":"4","02_ages_5":"5","02_ages_6":"6","02_ages_7":"7","02_ages_8":"8","03":"Yes","03_ages_4":"4","03_ages_5":"5","03_ages_6":"6","03_ages_7":"7","03_ages_8":"8","03_ages_9":"9","03_ages_10":"10","04":"Yes","04_ages_5":"5","04_ages_6":"6","04_ages_7":"7","04_ages_8":"8","04_ages_9":"9","04_ages_10":"10","04_ages_11":"11","04_ages_12":"12","04_ages_13":"13","04_ages_14":"14","04_ages_15":"15","04_ages_16":"16","04_ages_17":"17","04_ages_18":"18","05":"Yes","05_ages_4":"4","05_ages_5":"5","05_ages_6":"6","05_ages_7":"7","05_ages_8":"8","05_ages_11":"11","05_ages_14":"14","05_ages_15":"15","05_ages_16":"16","05_ages_18":"18","06":"Yes","06_ages_5":"5","06_ages_6":"6","07":"Yes","07_ages_5":"5","07_ages_6":"6"},"rt":106250.79999995232,"item_order":[0,1,2,3,4,5,6],"radio_events":[12369,17234.5,21242.399999976158,38271.299999952316,46997,58658.799999952316,78998.79999995232,93848.69999992847,102386.5],"checkbox_events":[39672.799999952316,40249.199999928474,40808.89999997616,41363.39999997616,41887.10000002384,48656.60000002384,49306.799999952316,49962.699999928474,51149.199999928474,52090.89999997616,53843,54565.39999997616,64098.699999928474,65450.799999952316,67014.5,67624.79999995232,68105.10000002384,68820.79999995232,69698.29999995232,70604.39999997616,71468.5,72491,73050.89999997616,73564.29999995232,74313.10000002384,74929.10000002384,80490.79999995232,81136.79999995232,81693,82742.39999997616,83460.69999992847,84656.79999995232,85698.89999997616,86961,87596.60000002384,89172.79999995232,96200.69999992847,96748.79999995232,104020.5,104836.69999992847],"key_events":[],"mouse_events":[12369,17234.5,21242.399999976158,38271.299999952316,39672.799999952316,40249.199999928474,40808.89999997616,41363.39999997616,41887.10000002384,46997,48656.60000002384,49306.799999952316,49962.699999928474,51149.199999928474,52090.89999997616,52746.799999952316,53438,53843,54565.39999997616,58658.799999952316,64098.699999928474,65450.799999952316,66213.29999995232,67014.5,67624.79999995232,68105.10000002384,68820.79999995232,69698.29999995232,70604.39999997616,71468.5,72491,73050.89999997616,73564.29999995232,74313.10000002384,74929.10000002384,78998.79999995232,80490.79999995232,81136.79999995232,81693,82742.39999997616,83460.69999992847,84656.79999995232,85698.89999997616,86961,87596.60000002384,89172.79999995232,93848.69999992847,96200.69999992847,96748.79999995232,102386.5,104020.5,104836.69999992847,106247.39999997616],"honeypot":0,"survey":"mace","page":7,"trial_type":"survey-mace","trial_index":15,"time_elapsed":1217089,"internal_node_id":"0.0-15.0","task_version":"prescreen-v0.3","browser_interactions":0},{"responses":{"01":"No","02":"No","03":"No","04":"No"},"rt":46747.199999928474,"item_order":[0,1,2,3],"radio_events":[15665.299999952316,20935.299999952316,37047.89999997616,45837.60000002384],"checkbox_events":[],"key_events":[],"mouse_events":[15665.299999952316,20935.299999952316,37047.89999997616,45837.60000002384,46745.39999997616],"honeypot":0,"survey":"mace","page":8,"trial_type":"survey-mace","trial_index":16,"time_elapsed":1263839,"internal_node_id":"0.0-16.0","task_version":"prescreen-v0.3","browser_interactions":0},{"responses":{"01":"Yes","01_ages_1":"1","01_ages_2":"2","01_ages_3":"3","01_ages_4":"4","01_ages_5":"5","01_ages_6":"6","01_ages_7":"7","01_ages_8":"8","01_ages_9":"9","01_ages_10":"10","01_ages_11":"11","01_ages_12":"12","01_ages_13":"13","01_ages_14":"14","01_ages_15":"15","01_ages_16":"16","01_ages_17":"17","01_ages_18":"18","02":"Yes","02_ages_1":"1","02_ages_2":"2","02_ages_3":"3","02_ages_4":"4","02_ages_5":"5","02_ages_6":"6","02_ages_7":"7","02_ages_8":"8","02_ages_9":"9","02_ages_10":"10","02_ages_11":"11","02_ages_12":"12","02_ages_13":"13","02_ages_14":"14","02_ages_15":"15","02_ages_16":"16","02_ages_17":"17","02_ages_18":"18","03":"Yes","03_ages_1":"1","03_ages_2":"2","03_ages_3":"3","03_ages_4":"4","03_ages_5":"5","03_ages_6":"6","03_ages_7":"7","03_ages_8":"8","03_ages_9":"9","03_ages_10":"10","03_ages_11":"11","03_ages_12":"12","03_ages_13":"13","03_ages_14":"14","03_ages_15":"15","03_ages_16":"16","03_ages_17":"17","03_ages_18":"18","04":"Yes","04_ages_1":"1","04_ages_2":"2","04_ages_3":"3","04_ages_4":"4","04_ages_5":"5","04_ages_6":"6","04_ages_7":"7","04_ages_8":"8","04_ages_9":"9","04_ages_10":"10","04_ages_11":"11","04_ages_12":"12","04_ages_13":"13","04_ages_14":"14","04_ages_15":"15","04_ages_16":"16","04_ages_17":"17","04_ages_18":"18"},"rt":139455.19999992847,"item_order":[0,1,2,3],"radio_events":[15334.100000023842,49989.699999928474,70795.60000002384,124883.60000002384],"checkbox_events":[18121.699999928474,18789.5,19621.5,20241.699999928474,21421.5,23768.100000023842,24463.5,31413.299999952316,36693.60000002384,37323.5,37767.799999952316,38221.799999952316,38893.699999928474,39473.199999928474,40313.799999952316,41603.89999997616,42465.699999928474,43099.89999997616,52453.60000002384,53395.699999928474,54043.89999997616,55306.10000002384,55889.199999928474,57385.60000002384,58066,58915.60000002384,59575.60000002384,60219,61065.89999997616,61615.89999997616,62292,62871.5,63645.60000002384,64229.89999997616,64769.5,65385.89999997616,72535.29999995232,76748,78203.5,78769.39999997616,79449.60000002384,80109.29999995232,80679.69999992847,81255.39999997616,81795.79999995232,82313.69999992847,82789.29999995232,83563.39999997616,84297.19999992847,84725.19999992847,85431.89999997616,86523.89999997616,87233,87683.89999997616,126241.5,126781.19999992847,127267.79999995232,128353.39999997616,129875.39999997616,130644,131081.19999992847,131805.29999995232,132259.79999995232,132679.39999997616,133087.10000002384,133965.60000002384,134799.29999995232,135607.89999997616,136535.60000002384,137367.5,138053.10000002384,138743.60000002384],"key_events":[],"mouse_events":[15334.100000023842,16974.199999928474,18121.699999928474,18789.5,19621.5,20241.699999928474,20813.199999928474,21421.5,21921.5,22531.399999976158,22849.100000023842,23768.100000023842,24463.5,31413.299999952316,36693.60000002384,37323.5,37767.799999952316,38221.799999952316,38893.699999928474,39473.199999928474,40313.799999952316,41603.89999997616,42465.699999928474,43099.89999997616,49989.699999928474,52453.60000002384,53395.699999928474,54043.89999997616,54613.60000002384,55306.10000002384,55889.199999928474,56891.5,57385.60000002384,58066,58915.60000002384,59575.60000002384,60219,61065.89999997616,61615.89999997616,62292,62871.5,63645.60000002384,64229.89999997616,64769.5,65385.89999997616,70795.60000002384,72535.29999995232,76748,78203.5,78769.39999997616,79449.60000002384,80109.29999995232,80679.69999992847,81255.39999997616,81795.79999995232,82313.69999992847,82789.29999995232,83563.39999997616,84297.19999992847,84725.19999992847,85431.89999997616,86523.89999997616,87233,87683.89999997616,124883.60000002384,126241.5,126781.19999992847,127267.79999995232,127909.29999995232,128353.39999997616,128893.39999997616,129875.39999997616,130644,131081.19999992847,131805.29999995232,132259.79999995232,132679.39999997616,133087.10000002384,133965.60000002384,134799.29999995232,135607.89999997616,136535.60000002384,137367.5,138053.10000002384,138743.60000002384,139453.69999992847],"honeypot":0,"survey":"mace","page":9,"trial_type":"survey-mace","trial_index":17,"time_elapsed":1403296,"internal_node_id":"0.0-17.0","task_version":"prescreen-v0.3","browser_interactions":0},{"responses":{"01":"No","02":"No","03":"Yes","03_ages_13":"13","03_ages_14":"14","03_ages_15":"15","03_ages_16":"16","03_ages_17":"17","03_ages_18":"18","04":"No","05":"No","06":"Yes","06_ages_17":"17","07":"Yes","07_ages_1":"1","07_ages_2":"2","07_ages_3":"3","07_ages_4":"4","07_ages_5":"5","07_ages_6":"6","07_ages_7":"7","07_ages_8":"8","07_ages_9":"9","07_ages_10":"10","07_ages_11":"11","07_ages_12":"12","07_ages_13":"13","07_ages_14":"14","07_ages_15":"15","07_ages_16":"16","07_ages_17":"17","07_ages_18":"18","08":"Yes","08_ages_1":"1","08_ages_2":"2","08_ages_3":"3","08_ages_4":"4","08_ages_5":"5","08_ages_6":"6","08_ages_7":"7","08_ages_8":"8","08_ages_9":"9","08_ages_10":"10","08_ages_11":"11","08_ages_12":"12","08_ages_13":"13","08_ages_14":"14","08_ages_15":"15","08_ages_16":"16","08_ages_17":"17","08_ages_18":"18"},"rt":86861.39999997616,"item_order":[0,1,2,3,4,5,6,7],"radio_events":[6320.599999904633,8054.099999904633,19358.099999904633,33408.59999990463,40148.199999928474,44588.699999928474,51868,72736.5],"checkbox_events":[21190.199999928474,21860.099999904633,22470.099999904633,23043.899999976158,25066.699999928474,25706,46222.699999928474,53672.09999990463,54384.699999928474,55558.5,56104.09999990463,56602.09999990463,57388.299999952316,58010.09999990463,58590.199999928474,59790,61710.699999928474,62266.39999997616,63072.39999997616,65812.19999992847,66316.5,67038.29999995232,67763.89999997616,68520.19999992847,69242.29999995232,73772.29999995232,74390.39999997616,75260.19999992847,75956.39999997616,76660.19999992847,77946.39999997616,79007.69999992847,79658.09999990463,80132.39999997616,80818.39999997616,81352,81858.29999995232,82730.19999992847,83514.39999997616,84140.29999995232,84662,85196.5,85624.5],"key_events":[],"mouse_events":[6320.599999904633,8054.099999904633,19358.099999904633,21190.199999928474,21860.099999904633,22470.099999904633,23043.899999976158,25066.699999928474,25706,33408.59999990463,40148.199999928474,44588.699999928474,46222.699999928474,51868,53672.09999990463,54384.699999928474,55558.5,56104.09999990463,56602.09999990463,57388.299999952316,58010.09999990463,58590.199999928474,59790,61710.699999928474,62266.39999997616,63072.39999997616,65812.19999992847,66316.5,67038.29999995232,67763.89999997616,68520.19999992847,69242.29999995232,72736.5,73772.29999995232,74390.39999997616,75260.19999992847,75956.39999997616,76660.19999992847,77310.19999992847,77946.39999997616,79007.69999992847,79658.09999990463,80132.39999997616,80818.39999997616,81352,81858.29999995232,82730.19999992847,83514.39999997616,84140.29999995232,84662,85196.5,85624.5,86858.5],"honeypot":0,"survey":"mace","page":10,"trial_type":"survey-mace","trial_index":18,"time_elapsed":1490163,"internal_node_id":"0.0-18.0","task_version":"prescreen-v0.3","browser_interactions":0,"instructed":0},{"rt":5478,"trial_type":"mental-health-alert","trial_index":19,"time_elapsed":1495642,"internal_node_id":"0.0-19.0","task_version":"prescreen-v0.3","interactions":"[]"}]