[{"view_history":[{"page_index":0,"viewing_time":5163.5999999996275},{"page_index":1,"viewing_time":2015.4000000003725},{"page_index":2,"viewing_time":2592},{"page_index":3,"viewing_time":1090.7999999988824}],"rt":10862.799999998882,"trial_type":"instructions","trial_index":0,"time_elapsed":10880,"internal_node_id":"0.0-0.0","task_version":"prescreen-v0.3"},{"rt":14367.10000000149,"responses":{"age":"39","gender-categorical":"Female","gender-free-response":"","ethnicity":"Not Hispanic or Latino","race":["White"],"education":"High school"},"trial_type":"survey-demo","trial_index":1,"time_elapsed":25255,"internal_node_id":"0.0-1.0","task_version":"prescreen-v0.3"},{"responses":{"Q14":"1","Q16":"1","Q20":"0","Q07":"0","Q04":"1","Q10":"2","Q21":"3","Q15":"1","Q05":"0","Q13":"2","Q08":"0","Q19":"0","Q17":"1","Q01":"1","Q11":"1","Q09":"1","Q12":"1","Q18":"0","Q06":"1","Q02":"0","Q03":"0"},"rt":67456,"item_order":[13,15,19,6,3,9,20,14,4,12,7,18,16,0,10,8,11,17,5,1,2],"radio_events":[7742.4000000003725,9254.5,11150.5,14446.900000000373,18326.599999999627,23518.5,25030.400000000373,29374.199999999255,32158.400000000373,35870.300000000745,38390.300000000745,43062.09999999963,45774.09999999963,47774.40000000037,51149.90000000037,52869.90000000037,55190.199999999255,57526.09999999963,60430,65286,66702.09999999963],"key_events":[],"mouse_events":[5854.699999999255,7742.4000000003725,9254.5,11150.5,14446.900000000373,18326.599999999627,23518.5,25030.400000000373,29374.199999999255,32158.400000000373,35870.300000000745,37694.300000000745,38390.300000000745,43062.09999999963,45774.09999999963,47774.40000000037,51149.90000000037,52869.90000000037,55190.199999999255,57526.09999999963,60430,65286,66702.09999999963,67454],"straightlining":0.47619047619047616,"zigzagging":0.45,"honeypot":0,"survey":"sns","trial_type":"survey-template","trial_index":2,"time_elapsed":92722,"internal_node_id":"0.0-2.0","task_version":"prescreen-v0.3","browser_interactions":2,"infrequency":0},{"responses":{"Q11":"2","Q13":"0","Q12":"1","Q01":"2","Q08":"3","Q09":"1","Q05":"3","Q04":"3","Q07":"3","Q03":"3","Q06":"3","Q10":"1","Q02":"3"},"rt":36024.09999999963,"item_order":[10,12,11,0,7,8,4,3,6,2,5,9,1],"radio_events":[7496.0999999996275,9615.299999998882,11639.299999998882,13765.099999999627,15759.099999999627,21262.799999998882,23398.900000000373,26103.199999999255,27375.099999999627,29615.699999999255,31687.400000000373,34022.79999999888,35503],"key_events":[],"mouse_events":[7496.0999999996275,9615.299999998882,11639.299999998882,13765.099999999627,15759.099999999627,21262.799999998882,23398.900000000373,26103.199999999255,27375.099999999627,29615.699999999255,31687.400000000373,34022.79999999888,35503,36022.90000000037],"straightlining":0.5384615384615384,"zigzagging":0.25,"honeypot":0,"survey":"bisbas","trial_type":"survey-template","trial_index":3,"time_elapsed":128750,"internal_node_id":"0.0-3.0","task_version":"prescreen-v0.3","browser_interactions":0,"infrequency":0},{"responses":{"Q01":"3","Q02":"2","Q03":"3"},"rt":11722.200000001118,"radio_events":[3874.300000000745,6769.5,10962.400000000373],"key_events":[],"mouse_events":[3874.300000000745,6769.5,10962.400000000373,11721.5],"survey":"map","page":1,"trial_type":"survey-map","trial_index":4,"time_elapsed":140477,"internal_node_id":"0.0-4.0","task_version":"prescreen-v0.3","browser_interactions":0},{"responses":{"Q04":"3","Q05":"2","Q06":"2"},"rt":11590,"radio_events":[6573.5,9613.199999999255,10884.599999999627],"key_events":[],"mouse_events":[6573.5,9613.199999999255,10884.599999999627,11589.5],"survey":"map","page":2,"trial_type":"survey-map","trial_index":5,"time_elapsed":152069,"internal_node_id":"0.0-5.0","task_version":"prescreen-v0.3","browser_interactions":0},{"responses":{"Q07":"4","Q08":"4","Q09":"3"},"rt":11478,"radio_events":[3476.9000000003725,8101,10997.5],"key_events":[],"mouse_events":[3476.9000000003725,8101,10997.5,11477.60000000149],"survey":"map","page":3,"trial_type":"survey-map","trial_index":6,"time_elapsed":163549,"internal_node_id":"0.0-6.0","task_version":"prescreen-v0.3","browser_interactions":0},{"responses":{"Q10":"2","Q11":"2","Q12":"2","Q13":"3","Q16":"0","Q14":"2","Q15":"1"},"rt":26709.699999999255,"radio_events":[5421.5999999996275,7356.699999999255,13820.900000000373,16157.299999998882,19284.699999999255,21964.699999999255,25621.299999998882],"key_events":[],"mouse_events":[5421.5999999996275,7356.699999999255,13820.900000000373,16157.299999998882,19284.699999999255,21964.699999999255,25621.299999998882,26708.900000000373],"survey":"map","page":4,"trial_type":"survey-map","trial_index":7,"time_elapsed":190262,"internal_node_id":"0.0-7.0","task_version":"prescreen-v0.3","browser_interactions":0,"infrequency":0},{"view_history":[{"page_index":0,"viewing_time":1789.2999999988824},{"page_index":1,"viewing_time":2231.2000000011176}],"rt":4021.199999999255,"trial_type":"instructions","trial_index":8,"time_elapsed":194284,"internal_node_id":"0.0-8.0","task_version":"prescreen-v0.3"},{"responses":{"01":"Yes","01_ages_1":"1","01_ages_2":"2","01_ages_3":"3","01_ages_4":"4","02":"No","03":"Yes","03_ages_1":"1","03_ages_2":"2","03_ages_3":"3","03_ages_4":"4","04":"No","05":"No","06":"Yes","06_ages_1":"1","06_ages_2":"2","06_ages_3":"3","06_ages_4":"4"},"rt":45145.800000000745,"item_order":[0,1,2,3,4,5],"radio_events":[8482.199999999255,12250.599999999627,17434.800000000745,29034.400000000373,30041.900000000373,31769.699999999255,38666.300000000745],"checkbox_events":[21290.699999999255,22026.800000000745,22906.400000000373,23610,32962.300000000745,33489.800000000745,33946.09999999963,34554.199999999255,39866.59999999963,40537.800000000745,40986,41402.5],"key_events":[],"mouse_events":[0.19999999925494194,8482.199999999255,12250.599999999627,17434.800000000745,21290.699999999255,22026.800000000745,22906.400000000373,23610,29034.400000000373,30041.900000000373,31769.699999999255,32962.300000000745,33489.800000000745,33946.09999999963,34554.199999999255,38666.300000000745,39866.59999999963,40537.800000000745,40986,41402.5,45140.90000000037],"honeypot":0,"survey":"mace","page":1,"trial_type":"survey-mace","trial_index":9,"time_elapsed":239438,"internal_node_id":"0.0-9.0","task_version":"prescreen-v0.3","browser_interactions":0},{"responses":{"01":"Yes","01_ages_1":"1","01_ages_2":"2","01_ages_3":"3","01_ages_4":"4","02":"No","03":"Yes","03_ages_1":"1","03_ages_2":"2","03_ages_3":"3","03_ages_4":"4","04":"Yes","04_ages_1":"1","04_ages_2":"2","04_ages_3":"3","04_ages_4":"4","05":"Yes","05_ages_1":"1","05_ages_2":"2","05_ages_3":"3","05_ages_4":"4","06":"No","07":"No","08":"No"},"rt":32445.599999999627,"item_order":[0,1,2,3,4,5,6,7],"radio_events":[5505.5999999996275,13586.5,15226.300000000745,19066.200000001118,23353.700000001118,28562.300000000745,30401.800000000745,31626.300000000745],"checkbox_events":[6961.800000000745,7626.5999999996275,8178.700000001118,9057.900000000373,16105.599999999627,16506.400000000373,16914,17418,19929.800000000745,20346.300000000745,21298.400000000373,21769.900000000373,25482.099999999627,26330,26914.5,27434.5],"key_events":[],"mouse_events":[5505.5999999996275,6562.4000000003725,6961.800000000745,7626.5999999996275,8178.700000001118,9057.900000000373,13586.5,15226.300000000745,16105.599999999627,16506.400000000373,16914,17418,19066.200000001118,19929.800000000745,20346.300000000745,20761.599999999627,21298.400000000373,21769.900000000373,23353.700000001118,24394.200000001118,25482.099999999627,26330,26914.5,27434.5,28562.300000000745,30401.800000000745,31626.300000000745,32442.200000001118],"honeypot":0,"survey":"mace","page":2,"trial_type":"survey-mace","trial_index":10,"time_elapsed":271889,"internal_node_id":"0.0-10.0","task_version":"prescreen-v0.3","browser_interactions":0},{"responses":{"01":"Yes","01_ages_1":"1","01_ages_2":"2","01_ages_3":"3","01_ages_4":"4","02":"Yes","02_ages_1":"1","02_ages_2":"2","02_ages_3":"3","02_ages_4":"4","03":"No","04":"No"},"rt":19002.099999999627,"item_order":[0,1,2,3],"radio_events":[5145.800000000745,13048.300000000745,17424.699999999255,18393],"checkbox_events":[7272.9000000003725,8000,8512.5,9104.199999999255,13936.300000000745,14472.400000000373,14992,15456.400000000373],"key_events":[],"mouse_events":[5145.800000000745,6480.0999999996275,7272.9000000003725,8000,8512.5,9104.199999999255,13048.300000000745,13936.300000000745,14472.400000000373,14992,15456.400000000373,17424.699999999255,18393,19000.300000000745],"honeypot":0,"survey":"mace","page":3,"trial_type":"survey-mace","trial_index":11,"time_elapsed":290894,"internal_node_id":"0.0-11.0","task_version":"prescreen-v0.3","browser_interactions":0},{"responses":{"01":"Yes","01_ages_15":"15","01_ages_16":"16","01_ages_17":"17","02":"Yes","02_ages_16":"16","02_ages_17":"17"},"rt":24356.699999999255,"item_order":[0,1],"radio_events":[10595.699999999255,17787.5],"checkbox_events":[12451.400000000373,13179.5,16171.099999999627,19171.299999998882,23507.099999999627],"key_events":[],"mouse_events":[10155.799999998882,10595.699999999255,12451.400000000373,13179.5,16171.099999999627,17787.5,19171.299999998882,22859.599999999627,23507.099999999627,24355.900000000373],"honeypot":0,"survey":"mace","page":4,"trial_type":"survey-mace","trial_index":12,"time_elapsed":315253,"internal_node_id":"0.0-12.0","task_version":"prescreen-v0.3","browser_interactions":0},{"responses":{"01":"Yes","01_ages_1":"1","01_ages_2":"2","01_ages_3":"3","01_ages_4":"4","02":"Yes","02_ages_1":"1","02_ages_2":"2","02_ages_3":"3","02_ages_4":"4","03":"Yes","03_ages_1":"1","03_ages_2":"2","03_ages_3":"3","03_ages_4":"4","04":"No","05":"No"},"rt":32279.10000000149,"item_order":[0,1,2,3,4],"radio_events":[9668.400000000373,15268.400000000373,20323.900000000373,25059.60000000149,26227.900000000373,29308.200000001118],"checkbox_events":[10860.60000000149,11323.800000000745,11748.5,12724.800000000745,16091.700000001118,16708.60000000149,17163.60000000149,17660.5,21363.60000000149,22003.900000000373,22684.10000000149,23283.700000001118],"key_events":[],"mouse_events":[9668.400000000373,10860.60000000149,11323.800000000745,11748.5,12724.800000000745,15268.400000000373,16091.700000001118,16708.60000000149,17163.60000000149,17660.5,20323.900000000373,21363.60000000149,22003.900000000373,22684.10000000149,23283.700000001118,25059.60000000149,26227.900000000373,29308.200000001118,32276],"honeypot":0,"survey":"mace","page":5,"trial_type":"survey-mace","trial_index":13,"time_elapsed":347536,"internal_node_id":"0.0-13.0","task_version":"prescreen-v0.3","browser_interactions":0},{"responses":{"01":"No","02":"Yes","02_ages_15":"15","02_ages_16":"16","02_ages_17":"17","03":"Yes","03_ages_15":"15","03_ages_16":"16","03_ages_17":"17","04":"No","05":"No"},"rt":29841.300000000745,"item_order":[0,1,2,3,4],"radio_events":[10270.700000001118,12143.200000001118,15639.700000001118,20775.900000000373,22536,25576],"checkbox_events":[18216,18775.200000001118,19607.400000000373,26831.200000001118,27303.700000001118,28319.300000000745],"key_events":[],"mouse_events":[10270.700000001118,12143.200000001118,15639.700000001118,18216,18775.200000001118,19607.400000000373,20775.900000000373,22536,25576,26831.200000001118,27303.700000001118,27898.800000000745,28319.300000000745,29839.200000001118],"honeypot":0,"survey":"mace","page":6,"trial_type":"survey-mace","trial_index":14,"time_elapsed":377383,"internal_node_id":"0.0-14.0","task_version":"prescreen-v0.3","browser_interactions":0},{"responses":{"01":"No","02":"Yes","02_ages_17":"17","02_ages_18":"18","03":"No","04":"No","05":"No","06":"Yes","06_ages_17":"17","06_ages_18":"18","07":"Yes","07_ages_17":"17","07_ages_18":"18"},"rt":30133.300000000745,"item_order":[0,1,2,3,4,5,6],"radio_events":[2290.699999999255,8554.300000000745,9618.800000000745,10642.800000000745,11770.5,15210,17642.900000000373,23450.900000000373],"checkbox_events":[16410.800000000745,18970,24498.199999999255,27394.199999999255,28114,29106.5],"key_events":[],"mouse_events":[2290.699999999255,8554.300000000745,9618.800000000745,10642.800000000745,11770.5,14547,15210,16410.800000000745,17642.900000000373,18970,22810.5,23450.900000000373,24498.199999999255,27394.199999999255,28114,29106.5,30130.199999999255],"honeypot":0,"survey":"mace","page":7,"trial_type":"survey-mace","trial_index":15,"time_elapsed":407520,"internal_node_id":"0.0-15.0","task_version":"prescreen-v0.3","browser_interactions":0},{"responses":{"01":"No","02":"No","03":"No","04":"No"},"rt":13172,"item_order":[0,1,2,3],"radio_events":[4729.4000000003725,6897,9881.099999999627,12361.099999999627],"checkbox_events":[],"key_events":[],"mouse_events":[4729.4000000003725,6897,9881.099999999627,11657.200000001118,12361.099999999627,13169.099999999627],"honeypot":0,"survey":"mace","page":8,"trial_type":"survey-mace","trial_index":16,"time_elapsed":420695,"internal_node_id":"0.0-16.0","task_version":"prescreen-v0.3","browser_interactions":0},{"responses":{"01":"Yes","01_ages_1":"1","01_ages_2":"2","01_ages_3":"3","01_ages_4":"4","01_ages_5":"5","01_ages_6":"6","01_ages_7":"7","01_ages_8":"8","01_ages_9":"9","01_ages_10":"10","01_ages_11":"11","01_ages_12":"12","01_ages_13":"13","01_ages_14":"14","01_ages_15":"15","01_ages_16":"16","01_ages_17":"17","01_ages_18":"18","02":"Yes","02_ages_1":"1","02_ages_2":"2","02_ages_3":"3","02_ages_4":"4","02_ages_5":"5","02_ages_6":"6","02_ages_7":"7","02_ages_8":"8","02_ages_9":"9","02_ages_10":"10","02_ages_11":"11","02_ages_12":"12","02_ages_13":"13","02_ages_14":"14","02_ages_15":"15","02_ages_16":"16","02_ages_17":"17","02_ages_18":"18","03":"Yes","03_ages_1":"1","03_ages_2":"2","03_ages_3":"3","03_ages_4":"4","03_ages_5":"5","03_ages_6":"6","03_ages_7":"7","03_ages_8":"8","03_ages_9":"9","03_ages_10":"10","03_ages_11":"11","03_ages_12":"12","03_ages_13":"13","03_ages_14":"14","03_ages_15":"15","03_ages_16":"16","03_ages_17":"17","03_ages_18":"18","04":"Yes","04_ages_1":"1","04_ages_2":"2","04_ages_3":"3","04_ages_4":"4","04_ages_5":"5","04_ages_6":"6","04_ages_7":"7","04_ages_8":"8","04_ages_9":"9","04_ages_10":"10","04_ages_11":"11","04_ages_12":"12","04_ages_13":"13","04_ages_14":"14","04_ages_15":"15","04_ages_16":"16","04_ages_17":"17","04_ages_18":"18"},"rt":66139.5,"item_order":[0,1,2,3],"radio_events":[2521.7999999988824,22346.299999998882,37209.5,52769.40000000037],"checkbox_events":[8562,9050.299999998882,9641.699999999255,10954.5,11657.799999998882,12482.299999998882,12969.5,13697.599999999627,15402.400000000373,15937.699999999255,16426,16817.5,17266.299999998882,17930.400000000373,18570.299999998882,19306.199999999255,19713.5,20241.599999999627,23785.599999999627,24185.799999998882,24633.699999999255,25241.599999999627,25657.5,26322.299999998882,26810.400000000373,27594.400000000373,28249.799999998882,28810.5,29313.5,29914.299999998882,31361.699999999255,32058.199999999255,32570.099999999627,33097.5,33665.79999999888,34346.199999999255,38425.79999999888,38881.5,39401.59999999963,39786.09999999963,40514.199999999255,41617.699999999255,42153.59999999963,42857.40000000037,43418.40000000037,44130,44697.40000000037,45225.5,46041.5,46737.5,47217.699999999255,48081.09999999963,48745.79999999888,49362.199999999255,54657.90000000037,55370.199999999255,56257.90000000037,56913.40000000037,57609.40000000037,58133.29999999888,58769.5,59481.40000000037,60074.09999999963,60689.699999999255,61417.5,62010.09999999963,63058,63618.29999999888,64089.40000000037,64762,65241.29999999888,65641.29999999888],"key_events":[],"mouse_events":[2521.7999999988824,8562,9050.299999998882,9641.699999999255,10954.5,11657.799999998882,12482.299999998882,12969.5,13697.599999999627,14833.5,15402.400000000373,15937.699999999255,16426,16817.5,17266.299999998882,17930.400000000373,18570.299999998882,19306.199999999255,19713.5,20241.599999999627,22346.299999998882,23785.599999999627,24185.799999998882,24633.699999999255,25241.599999999627,25657.5,26322.299999998882,26810.400000000373,27153.900000000373,27594.400000000373,28249.799999998882,28810.5,29313.5,29914.299999998882,31361.699999999255,32058.199999999255,32570.099999999627,33097.5,33665.79999999888,34346.199999999255,37209.5,38425.79999999888,38881.5,39401.59999999963,39786.09999999963,40153.59999999963,40514.199999999255,40929.79999999888,41241.699999999255,41617.699999999255,42153.59999999963,42857.40000000037,43418.40000000037,44130,44697.40000000037,45225.5,46041.5,46737.5,47217.699999999255,48081.09999999963,48745.79999999888,49362.199999999255,52769.40000000037,54065.199999999255,54657.90000000037,55370.199999999255,56257.90000000037,56913.40000000037,57609.40000000037,58133.29999999888,58769.5,59481.40000000037,60074.09999999963,60689.699999999255,61417.5,62010.09999999963,63058,63618.29999999888,64089.40000000037,64762,65241.29999999888,65641.29999999888,66137.5],"honeypot":0,"survey":"mace","page":9,"trial_type":"survey-mace","trial_index":17,"time_elapsed":486838,"internal_node_id":"0.0-17.0","task_version":"prescreen-v0.3","browser_interactions":0},{"responses":{"01":"No","02":"No","03":"No","04":"No","05":"No","06":"Yes","06_ages_17":"17","07":"Yes","07_ages_1":"1","07_ages_2":"2","07_ages_3":"3","07_ages_4":"4","07_ages_5":"5","07_ages_6":"6","07_ages_7":"7","07_ages_8":"8","07_ages_9":"9","07_ages_10":"10","07_ages_11":"11","07_ages_12":"12","07_ages_13":"13","07_ages_14":"14","07_ages_15":"15","07_ages_16":"16","07_ages_17":"17","07_ages_18":"18","08":"Yes","08_ages_1":"1","08_ages_2":"2","08_ages_3":"3","08_ages_4":"4","08_ages_5":"5","08_ages_6":"6","08_ages_7":"7","08_ages_8":"8","08_ages_9":"9","08_ages_10":"10","08_ages_11":"11","08_ages_12":"12","08_ages_13":"13","08_ages_14":"14","08_ages_15":"15","08_ages_16":"16","08_ages_17":"17","08_ages_18":"18"},"rt":43757.800000000745,"item_order":[0,1,2,3,4,5,6,7],"radio_events":[2498.5,3490.2000000011176,4906.800000000745,6619,8106.4000000003725,9666.700000001118,13818,29442.300000000745],"checkbox_events":[10890.800000000745,15666.300000000745,16426.599999999627,16930.400000000373,17770.599999999627,18842.800000000745,19530.099999999627,20306.200000001118,21370.400000000373,21818.400000000373,22266,22810.200000001118,23466.400000000373,23970.900000000373,24426.900000000373,24914.400000000373,25538.400000000373,26458.599999999627,27162.099999999627,31474.700000001118,32098.5,32761.900000000373,33154.59999999963,33554.20000000112,34570.09999999963,35018.09999999963,35466,36002,36450,37234.70000000112,37962.300000000745,38786,39410.59999999963,40090,40810.59999999963,41707,42378.09999999963],"key_events":[],"mouse_events":[2498.5,3490.2000000011176,4906.800000000745,6619,8106.4000000003725,9666.700000001118,10890.800000000745,13818,15666.300000000745,16426.599999999627,16930.400000000373,17770.599999999627,18458.900000000373,18842.800000000745,19530.099999999627,20306.200000001118,21370.400000000373,21818.400000000373,22266,22810.200000001118,23466.400000000373,23970.900000000373,24426.900000000373,24914.400000000373,25538.400000000373,26458.599999999627,27162.099999999627,29442.300000000745,31474.700000001118,32098.5,32761.900000000373,33154.59999999963,33554.20000000112,34066.800000000745,34570.09999999963,35018.09999999963,35466,36002,36450,37234.70000000112,37962.300000000745,38786,39410.59999999963,40090,40810.59999999963,41707,42378.09999999963,43754.40000000037],"honeypot":0,"survey":"mace","page":10,"trial_type":"survey-mace","trial_index":18,"time_elapsed":530601,"internal_node_id":"0.0-18.0","task_version":"prescreen-v0.3","browser_interactions":0,"instructed":0},{"rt":3895.2999999988824,"trial_type":"mental-health-alert","trial_index":19,"time_elapsed":534499,"internal_node_id":"0.0-19.0","task_version":"prescreen-v0.3","interactions":"[{\"event\":\"blur\",\"trial\":2,\"time\":65175},{\"event\":\"focus\",\"trial\":2,\"time\":65311}]"}]