[{"view_history":[{"page_index":0,"viewing_time":4126},{"page_index":1,"viewing_time":3270},{"page_index":2,"viewing_time":4807},{"page_index":3,"viewing_time":1717}],"rt":13920,"trial_type":"instructions","trial_index":0,"time_elapsed":13925,"internal_node_id":"0.0-0.0","task_version":"prescreen-v0.3"},{"rt":17149,"responses":{"age":"42","gender-categorical":"Male","gender-free-response":"","ethnicity":"Not Hispanic or Latino","race":["White"],"education":"Master degree or higher"},"trial_type":"survey-demo","trial_index":1,"time_elapsed":31087,"internal_node_id":"0.0-1.0","task_version":"prescreen-v0.3"},{"responses":{"Q15":"2","Q17":"3","Q20":"1","Q01":"3","Q03":"1","Q19":"2","Q10":"3","Q18":"2","Q11":"1","Q04":"3","Q12":"2","Q14":"1","Q07":"2","Q06":"1","Q13":"1","Q09":"3","Q08":"2","Q16":"3","Q21":"1","Q05":"2","Q02":"2"},"rt":71661,"item_order":[14,16,19,0,2,18,9,17,10,3,11,13,6,5,12,8,7,15,20,4,1],"radio_events":[7790,11851,15755,17516,20498,24377,27148,30746,32939,35875,38518,41339,44853,47688,49938,52565,54902,57258,59498,60309,61105,63159,65766,67518,70391],"key_events":[],"mouse_events":[7790,10259,11119,11851,15755,17037,17516,20498,23857,24377,27148,30746,32939,35875,38518,41339,43580,44421,44853,47688,49938,52565,54902,57258,59498,60309,61105,62797,63159,65766,67518,70391,71661],"straightlining":0.38095238095238093,"zigzagging":0.6,"honeypot":0,"survey":"sns","trial_type":"survey-template","trial_index":2,"time_elapsed":102755,"internal_node_id":"0.0-2.0","task_version":"prescreen-v0.3","browser_interactions":0,"infrequency":1},{"responses":{"Q08":"2","Q01":"2","Q06":"3","Q13":"1","Q09":"2","Q11":"3","Q07":"3","Q03":"2","Q04":"3","Q05":"2","Q12":"3","Q02":"2","Q10":"3"},"rt":66076,"item_order":[7,0,5,12,8,10,6,2,3,4,11,1,9],"radio_events":[21001,26502,27265,30390,35664,39196,41986,45918,49528,52039,56174,58698,64042,64821],"key_events":[],"mouse_events":[21001,26502,27265,29901,30390,35200,35664,39196,41518,41986,45195,45918,49528,52039,56174,58698,61108,62586,64042,64821,66076],"straightlining":0.46153846153846156,"zigzagging":0.75,"honeypot":0,"survey":"bisbas","trial_type":"survey-template","trial_index":3,"time_elapsed":168836,"internal_node_id":"0.0-3.0","task_version":"prescreen-v0.3","browser_interactions":2,"infrequency":0.5},{"responses":{"Q01":"4","Q02":"2","Q03":"3"},"rt":8406,"radio_events":[4469,6585,7357],"key_events":[],"mouse_events":[4469,6585,7357,8406],"survey":"map","page":1,"trial_type":"survey-map","trial_index":4,"time_elapsed":177247,"internal_node_id":"0.0-4.0","task_version":"prescreen-v0.3","browser_interactions":0},{"responses":{"Q04":"4","Q05":"2","Q06":"3"},"rt":6018,"radio_events":[1372,4081,5331],"key_events":[],"mouse_events":[1372,4081,5331,6018],"survey":"map","page":2,"trial_type":"survey-map","trial_index":5,"time_elapsed":183269,"internal_node_id":"0.0-5.0","task_version":"prescreen-v0.3","browser_interactions":0},{"responses":{"Q07":"4","Q08":"3","Q09":"2"},"rt":12967,"radio_events":[3382,8117,10455],"key_events":[],"mouse_events":[3382,7637,8117,10455,12967],"survey":"map","page":3,"trial_type":"survey-map","trial_index":6,"time_elapsed":196240,"internal_node_id":"0.0-6.0","task_version":"prescreen-v0.3","browser_interactions":0},{"responses":{"Q10":"4","Q11":"3","Q12":"2","Q13":"3","Q16":"4","Q14":"2","Q15":"3"},"rt":30582,"radio_events":[2710,4562,6936,8658,11117,13816,15901],"key_events":[],"mouse_events":[2710,4562,6936,8658,11117,13816,15901,30582],"survey":"map","page":4,"trial_type":"survey-map","trial_index":7,"time_elapsed":226826,"internal_node_id":"0.0-7.0","task_version":"prescreen-v0.3","browser_interactions":2,"infrequency":1},{"view_history":[{"page_index":0,"viewing_time":856874},{"page_index":1,"viewing_time":985}],"rt":857860,"trial_type":"instructions","trial_index":8,"time_elapsed":1084690,"internal_node_id":"0.0-8.0","task_version":"prescreen-v0.3"},{"responses":{"01":"Yes","01_ages_14":"14","02":"No","03":"No","04":"Yes","04_ages_12":"12","05":"No","06":"Yes","06_ages_15":"15"},"rt":16783,"item_order":[0,1,2,3,4,5],"radio_events":[3350,5983,7221,8827,13349,14134],"checkbox_events":[4609,10098,15357],"key_events":[],"mouse_events":[0,3350,4609,5983,7221,8827,10098,12262,13349,14134,15357,16783],"honeypot":0,"survey":"mace","page":1,"trial_type":"survey-mace","trial_index":9,"time_elapsed":1101491,"internal_node_id":"0.0-9.0","task_version":"prescreen-v0.3","browser_interactions":0},{"responses":{"01":"No","02":"Yes","02_ages_15":"15","03":"No","04":"Yes","04_ages_13":"13","05":"No","06":"Yes","06_ages_14":"14","07":"No","08":"Yes","08_ages_18":"18"},"rt":21532,"item_order":[0,1,2,3,4,5,6,7],"radio_events":[3551,4616,7745,9288,13016,13872,16762,19074],"checkbox_events":[6233,10900,15123,20033],"key_events":[],"mouse_events":[1733,3551,4616,5320,6233,7414,7745,8909,9288,10900,12550,13016,13872,15123,16762,19074,20033,21532],"honeypot":0,"survey":"mace","page":2,"trial_type":"survey-mace","trial_index":10,"time_elapsed":1123033,"internal_node_id":"0.0-10.0","task_version":"prescreen-v0.3","browser_interactions":0},{"responses":{"01":"Yes","01_ages_18":"18","02":"No","03":"Yes","03_ages_14":"14","04":"No"},"rt":12639,"item_order":[0,1,2,3],"radio_events":[3948,7028,8271,10781],"checkbox_events":[5640,9736],"key_events":[],"mouse_events":[3948,5056,5640,7028,8271,9736,10781,12639],"honeypot":0,"survey":"mace","page":3,"trial_type":"survey-mace","trial_index":11,"time_elapsed":1135681,"internal_node_id":"0.0-11.0","task_version":"prescreen-v0.3","browser_interactions":0},{"responses":{"01":"Yes","01_ages_18":"18","02":"No"},"rt":6005,"item_order":[0,1],"radio_events":[2785,5429],"checkbox_events":[3957],"key_events":[],"mouse_events":[2785,3957,4696,5429,6005],"honeypot":0,"survey":"mace","page":4,"trial_type":"survey-mace","trial_index":12,"time_elapsed":1141693,"internal_node_id":"0.0-12.0","task_version":"prescreen-v0.3","browser_interactions":0},{"responses":{"01":"Yes","01_ages_17":"17","02":"No","03":"No","04":"Yes","04_ages_15":"15","05":"No"},"rt":11176,"item_order":[0,1,2,3,4],"radio_events":[1633,3771,5699,6745,9853],"checkbox_events":[2725,7863],"key_events":[],"mouse_events":[1633,2725,3771,5699,6745,7863,9853,11176],"honeypot":0,"survey":"mace","page":5,"trial_type":"survey-mace","trial_index":13,"time_elapsed":1152880,"internal_node_id":"0.0-13.0","task_version":"prescreen-v0.3","browser_interactions":0},{"responses":{"01":"No","02":"Yes","02_ages_14":"14","03":"No","04":"Yes","04_ages_15":"15","05":"No"},"rt":12428,"item_order":[0,1,2,3,4],"radio_events":[2749,3491,7644,9123,11797],"checkbox_events":[5104,10100],"key_events":[],"mouse_events":[2749,3491,5104,6426,7644,9123,10100,11797,12428],"honeypot":0,"survey":"mace","page":6,"trial_type":"survey-mace","trial_index":14,"time_elapsed":1165319,"internal_node_id":"0.0-14.0","task_version":"prescreen-v0.3","browser_interactions":0},{"responses":{"01":"Yes","01_ages_14":"14","02":"No","03":"Yes","03_ages_15":"15","04":"No","05":"Yes","05_ages_17":"17","06":"Yes","06_ages_15":"15","07":"No"},"rt":19409,"item_order":[0,1,2,3,4,5,6],"radio_events":[2223,4101,5528,8445,10579,14875,18548],"checkbox_events":[3284,6919,12536,16676],"key_events":[],"mouse_events":[2223,3284,4101,5528,6919,8445,10579,11830,12536,14875,16676,18548,19408],"honeypot":0,"survey":"mace","page":7,"trial_type":"survey-mace","trial_index":15,"time_elapsed":1184749,"internal_node_id":"0.0-15.0","task_version":"prescreen-v0.3","browser_interactions":0},{"responses":{"01":"Yes","01_ages_18":"18","02":"Yes","02_ages_15":"15","03":"No","04":"Yes","04_ages_15":"15"},"rt":26766,"item_order":[0,1,2,3],"radio_events":[12970,16575,20400,22785,24454],"checkbox_events":[15142,21605,25995],"key_events":[],"mouse_events":[12970,14442,15142,16575,18079,20400,21605,22785,24454,25995,26766],"honeypot":0,"survey":"mace","page":8,"trial_type":"survey-mace","trial_index":16,"time_elapsed":1211522,"internal_node_id":"0.0-16.0","task_version":"prescreen-v0.3","browser_interactions":2},{"responses":{"01":"No","02":"Yes","02_ages_15":"15","03":"No","04":"Yes","04_ages_15":"15"},"rt":12092,"item_order":[0,1,2,3],"radio_events":[3545,5231,8142,9384],"checkbox_events":[6482,10878],"key_events":[],"mouse_events":[3545,5231,6482,8142,9037,9384,10878,12092],"honeypot":0,"survey":"mace","page":9,"trial_type":"survey-mace","trial_index":17,"time_elapsed":1223622,"internal_node_id":"0.0-17.0","task_version":"prescreen-v0.3","browser_interactions":0},{"responses":{"01":"No","02":"Yes","02_ages_10":"10","03":"No","04":"Yes","04_ages_14":"14","05":"Yes","05_ages_16":"16","06":"Yes","06_ages_17":"17","07":"Yes","07_ages_10":"10","08":"Yes","08_ages_15":"15"},"rt":30661,"item_order":[0,1,2,3,4,5,6,7],"radio_events":[3233,5494,8955,9954,13400,15943,22842,25573],"checkbox_events":[7177,10779,14109,17320,24581,26533],"key_events":[],"mouse_events":[2849,3233,5029,5494,7177,8955,9954,10779,12561,13400,14109,15943,17320,22315,22842,23519,24581,25573,26533,30661],"honeypot":0,"survey":"mace","page":10,"trial_type":"survey-mace","trial_index":18,"time_elapsed":1254295,"internal_node_id":"0.0-18.0","task_version":"prescreen-v0.3","browser_interactions":0,"instructed":0},{"rt":590556,"trial_type":"mental-health-alert","trial_index":19,"time_elapsed":1844854,"internal_node_id":"0.0-19.0","task_version":"prescreen-v0.3","interactions":"[{\"event\":\"focus\",\"trial\":0,\"time\":1},{\"event\":\"blur\",\"trial\":3,\"time\":107378},{\"event\":\"focus\",\"trial\":3,\"time\":117421},{\"event\":\"blur\",\"trial\":7,\"time\":213711},{\"event\":\"focus\",\"trial\":7,\"time\":215075},{\"event\":\"blur\",\"trial\":8,\"time\":232129},{\"event\":\"focus\",\"trial\":8,\"time\":235049},{\"event\":\"blur\",\"trial\":8,\"time\":235639},{\"event\":\"focus\",\"trial\":8,\"time\":1082304},{\"event\":\"blur\",\"trial\":16,\"time\":1188944},{\"event\":\"focus\",\"trial\":16,\"time\":1192626},{\"event\":\"blur\",\"trial\":19,\"time\":1258927},{\"event\":\"focus\",\"trial\":19,\"time\":1528080},{\"event\":\"blur\",\"trial\":19,\"time\":1529242},{\"event\":\"focus\",\"trial\":19,\"time\":1530502},{\"event\":\"blur\",\"trial\":19,\"time\":1532050},{\"event\":\"focus\",\"trial\":19,\"time\":1718060},{\"event\":\"blur\",\"trial\":19,\"time\":1718924},{\"event\":\"focus\",\"trial\":19,\"time\":1840829},{\"event\":\"blur\",\"trial\":19,\"time\":1841578},{\"event\":\"focus\",\"trial\":19,\"time\":1842868}]"}]