[{"view_history":[{"page_index":0,"viewing_time":3246.399999856949},{"page_index":1,"viewing_time":4535.5},{"page_index":2,"viewing_time":4136.400000095367},{"page_index":3,"viewing_time":1454.9000000953674}],"rt":13374.700000047684,"trial_type":"instructions","trial_index":0,"time_elapsed":13389,"internal_node_id":"0.0-0.0","task_version":"prescreen-v0.3"},{"rt":12043.900000095367,"responses":{"age":"29","gender-categorical":"Female","gender-free-response":"","ethnicity":"Not Hispanic or Latino","race":["White"],"education":"Master degree or higher"},"trial_type":"survey-demo","trial_index":1,"time_elapsed":25442,"internal_node_id":"0.0-1.0","task_version":"prescreen-v0.3"},{"responses":{"Q19":"2","Q14":"2","Q07":"1","Q13":"2","Q11":"1","Q21":"3","Q10":"0","Q04":"2","Q09":"2","Q17":"1","Q20":"3","Q01":"2","Q03":"1","Q05":"1","Q06":"1","Q16":"2","Q15":"3","Q12":"1","Q08":"1","Q18":"2","Q02":"1"},"rt":111058,"item_order":[18,13,6,12,10,20,9,3,8,16,19,0,2,4,5,15,14,11,7,17,1],"radio_events":[12790.300000190735,17934.60000014305,24324.200000047684,27552.5,31321,36457.700000047684,40534.700000047684,47427,55232.200000047684,56388.5,58854.40000009537,65003.10000014305,68910.5,73827.80000019073,79053,83076.30000019073,86906.70000004768,88056.5,94499.80000019073,97237.5,105178.40000009537,110149.20000004768],"key_events":[],"mouse_events":[12790.300000190735,17934.60000014305,24324.200000047684,27552.5,31321,36457.700000047684,40534.700000047684,47427,51398.300000190735,55232.200000047684,56388.5,58854.40000009537,65003.10000014305,68910.5,73268.30000019073,73827.80000019073,79053,83076.30000019073,85986.60000014305,86906.70000004768,88056.5,94499.80000019073,97237.5,105178.40000009537,110149.20000004768,111051.5],"straightlining":0.42857142857142855,"zigzagging":0.55,"honeypot":0,"survey":"sns","trial_type":"survey-template","trial_index":2,"time_elapsed":136504,"internal_node_id":"0.0-2.0","task_version":"prescreen-v0.3","browser_interactions":0,"infrequency":0},{"responses":{"Q06":"2","Q11":"2","Q03":"3","Q02":"2","Q10":"1","Q04":"3","Q09":"1","Q08":"2","Q05":"3","Q01":"3","Q13":"0","Q12":"0","Q07":"3"},"rt":68796.40000009537,"item_order":[5,10,2,1,9,3,8,7,4,0,12,11,6],"radio_events":[5659.900000095367,11207.900000095367,15375.200000047684,19033.299999952316,22348.799999952316,27526.5,31479.799999952316,38510.40000009537,43024.799999952316,51109.5,52603.40000009537,61211.200000047684,67801.29999995232],"key_events":[],"mouse_events":[5659.900000095367,11207.900000095367,15375.200000047684,17875.799999952316,19033.299999952316,22348.799999952316,27526.5,30903.900000095367,31479.799999952316,38510.40000009537,43024.799999952316,51109.5,52603.40000009537,61211.200000047684,67801.29999995232,68792.5],"straightlining":0.38461538461538464,"zigzagging":0.5833333333333334,"honeypot":0,"survey":"bisbas","trial_type":"survey-template","trial_index":3,"time_elapsed":205304,"internal_node_id":"0.0-3.0","task_version":"prescreen-v0.3","browser_interactions":0,"infrequency":0},{"responses":{"Q01":"2","Q02":"1","Q03":"2"},"rt":23247,"radio_events":[8904.200000047684,13083.799999952316,22238.700000047684],"key_events":[],"mouse_events":[8904.200000047684,13083.799999952316,22238.700000047684,23244.900000095367],"survey":"map","page":1,"trial_type":"survey-map","trial_index":4,"time_elapsed":228557,"internal_node_id":"0.0-4.0","task_version":"prescreen-v0.3","browser_interactions":0},{"responses":{"Q04":"2","Q05":"2","Q06":"2"},"rt":23027.299999952316,"radio_events":[6632.099999904633,11831.700000047684,22146.299999952316],"key_events":[],"mouse_events":[6632.099999904633,11831.700000047684,22146.299999952316,23025.200000047684],"survey":"map","page":2,"trial_type":"survey-map","trial_index":5,"time_elapsed":251588,"internal_node_id":"0.0-5.0","task_version":"prescreen-v0.3","browser_interactions":0},{"responses":{"Q07":"4","Q08":"0","Q09":"2"},"rt":19917.400000095367,"radio_events":[7094.700000047684,9922.800000190735,14995.100000143051,19091.5],"key_events":[],"mouse_events":[7094.700000047684,9922.800000190735,14995.100000143051,19091.5,19915.900000095367],"survey":"map","page":3,"trial_type":"survey-map","trial_index":6,"time_elapsed":271509,"internal_node_id":"0.0-6.0","task_version":"prescreen-v0.3","browser_interactions":0},{"responses":{"Q10":"1","Q11":"1","Q12":"0","Q13":"2","Q16":"0","Q14":"1","Q15":"1"},"rt":58617,"radio_events":[5593.799999952316,13060.400000095367,20903.700000047684,28790.900000095367,36683.10000014305,46206,50575.200000047684,52892.40000009537,54978.700000047684,57253.40000009537],"key_events":[],"mouse_events":[5593.799999952316,13060.400000095367,20903.700000047684,28790.900000095367,36683.10000014305,46206,50575.200000047684,52892.40000009537,54490.60000014305,54978.700000047684,57253.40000009537,58613.10000014305],"survey":"map","page":4,"trial_type":"survey-map","trial_index":7,"time_elapsed":330129,"internal_node_id":"0.0-7.0","task_version":"prescreen-v0.3","browser_interactions":0,"infrequency":0},{"view_history":[{"page_index":0,"viewing_time":2650.2999999523163},{"page_index":1,"viewing_time":4163.899999856949}],"rt":6815.799999952316,"trial_type":"instructions","trial_index":8,"time_elapsed":336947,"internal_node_id":"0.0-8.0","task_version":"prescreen-v0.3"},{"responses":{"01":"Yes","01_ages_10":"10","01_ages_11":"11","01_ages_12":"12","01_ages_13":"13","01_ages_14":"14","01_ages_15":"15","01_ages_16":"16","01_ages_17":"17","01_ages_18":"18","02":"Yes","02_ages_8":"8","02_ages_9":"9","02_ages_10":"10","02_ages_11":"11","02_ages_12":"12","02_ages_13":"13","02_ages_14":"14","02_ages_15":"15","02_ages_16":"16","02_ages_17":"17","02_ages_18":"18","03":"No","04":"No","05":"No","06":"No"},"rt":68473.10000014305,"item_order":[0,1,2,3,4,5],"radio_events":[16492.800000190735,35157,60667.60000014305,63105.5,64342.800000190735,67369.20000004768],"checkbox_events":[26641.10000014305,27121,27620,28148.200000047684,28907.300000190735,29371.700000047684,29898.900000095367,31178.60000014305,31615.700000047684,38877.700000047684,40023.90000009537,41077.5,41565,42286.200000047684,42822.40000009537,43650.10000014305,44204.10000014305,44657.700000047684,55019.200000047684,55804.60000014305],"key_events":[],"mouse_events":[11.900000095367432,16492.800000190735,26641.10000014305,27121,27620,28148.200000047684,28907.300000190735,29371.700000047684,29898.900000095367,30474.700000047684,31178.60000014305,31615.700000047684,35157,38877.700000047684,39412.700000047684,40023.90000009537,40572.10000014305,41077.5,41565,42286.200000047684,42822.40000009537,43650.10000014305,44204.10000014305,44657.700000047684,55019.200000047684,55804.60000014305,60667.60000014305,63105.5,64342.800000190735,66681.80000019073,67369.20000004768,68464],"honeypot":0,"survey":"mace","page":1,"trial_type":"survey-mace","trial_index":9,"time_elapsed":405430,"internal_node_id":"0.0-9.0","task_version":"prescreen-v0.3","browser_interactions":0},{"responses":{"01":"No","02":"No","03":"No","04":"No","05":"No","06":"No","07":"No","08":"No"},"rt":19033,"item_order":[0,1,2,3,4,5,6,7],"radio_events":[3849.899999856949,5959.799999952316,9018.199999809265,10520.5,12101.199999809265,13899.799999952316,17790.799999952316,18399.299999952316],"checkbox_events":[],"key_events":[],"mouse_events":[3849.899999856949,5959.799999952316,9018.199999809265,10520.5,12101.199999809265,13186.699999809265,13899.799999952316,17790.799999952316,18399.299999952316,19021.099999904633],"honeypot":0,"survey":"mace","page":2,"trial_type":"survey-mace","trial_index":10,"time_elapsed":424469,"internal_node_id":"0.0-10.0","task_version":"prescreen-v0.3","browser_interactions":0},{"responses":{"01":"No","02":"No","03":"No","04":"No"},"rt":8632.100000143051,"item_order":[0,1,2,3],"radio_events":[3344.7999999523163,4415.799999952316,5178.299999952316,6356.400000095367],"checkbox_events":[],"key_events":[],"mouse_events":[3344.7999999523163,4415.799999952316,5178.299999952316,6356.400000095367,7705.799999952316,8625.100000143051],"honeypot":0,"survey":"mace","page":3,"trial_type":"survey-mace","trial_index":11,"time_elapsed":433105,"internal_node_id":"0.0-11.0","task_version":"prescreen-v0.3","browser_interactions":0},{"responses":{"01":"No","02":"No"},"rt":5351.899999856949,"item_order":[0,1],"radio_events":[2968.5999999046326,4157.599999904633],"checkbox_events":[],"key_events":[],"mouse_events":[2968.5999999046326,4157.599999904633,5348.399999856949],"honeypot":0,"survey":"mace","page":4,"trial_type":"survey-mace","trial_index":12,"time_elapsed":438461,"internal_node_id":"0.0-12.0","task_version":"prescreen-v0.3","browser_interactions":0},{"responses":{"01":"No","02":"No","03":"No","04":"No","05":"No"},"rt":13102.399999856949,"item_order":[0,1,2,3,4],"radio_events":[4224.899999856949,7021.700000047684,8891,10231.399999856949,12342.5],"checkbox_events":[],"key_events":[],"mouse_events":[4224.899999856949,7021.700000047684,8891,10231.399999856949,12342.5,13094.399999856949],"honeypot":0,"survey":"mace","page":5,"trial_type":"survey-mace","trial_index":13,"time_elapsed":451569,"internal_node_id":"0.0-13.0","task_version":"prescreen-v0.3","browser_interactions":0},{"responses":{"01":"Yes","01_ages_6":"6","01_ages_7":"7","01_ages_8":"8","01_ages_9":"9","01_ages_10":"10","01_ages_11":"11","01_ages_12":"12","01_ages_13":"13","01_ages_14":"14","01_ages_15":"15","01_ages_16":"16","01_ages_17":"17","02":"Yes","02_ages_6":"6","02_ages_7":"7","02_ages_8":"8","02_ages_9":"9","02_ages_10":"10","02_ages_11":"11","02_ages_12":"12","02_ages_13":"13","02_ages_14":"14","02_ages_15":"15","02_ages_16":"16","02_ages_17":"17","03":"Yes","03_ages_8":"8","03_ages_9":"9","03_ages_10":"10","03_ages_11":"11","03_ages_12":"12","03_ages_13":"13","03_ages_14":"14","03_ages_15":"15","03_ages_16":"16","03_ages_17":"17","04":"Yes","04_ages_8":"8","04_ages_9":"9","04_ages_10":"10","04_ages_11":"11","04_ages_12":"12","04_ages_13":"13","04_ages_14":"14","04_ages_15":"15","04_ages_16":"16","04_ages_17":"17","05":"Yes","05_ages_11":"11","05_ages_12":"12","05_ages_13":"13"},"rt":89152.70000004768,"item_order":[0,1,2,3,4],"radio_events":[10458.200000047684,27240.89999985695,50070.799999952316,62329,77968],"checkbox_events":[13724.700000047684,15404.399999856949,15891.099999904633,16554.700000047684,17099.700000047684,17969.099999904633,18663.799999952316,19189.89999985695,19702.5,20990.5,21450.200000047684,22523,23058.700000047684,30119.5,30761.89999985695,31549.5,31983.099999904633,32532.099999904633,32979.39999985695,33524,34043.89999985695,34577.5,35161.700000047684,35686.89999985695,36120,37238.39999985695,40108.200000047684,43732.200000047684,52760.5,53208.200000047684,53695.200000047684,54357.200000047684,55052.799999952316,55523.39999985695,56627.5,57057,57551.700000047684,58902,65872.79999995232,66678.89999985695,67563.89999985695,68092.39999985695,68685.29999995232,69222,70282.20000004768,70721.89999985695,71257,72015.70000004768,72501.70000004768,73723.70000004768,86291.39999985695,87018.89999985695,87528.5],"key_events":[],"mouse_events":[10458.200000047684,13724.700000047684,15404.399999856949,15891.099999904633,16554.700000047684,17099.700000047684,17969.099999904633,18663.799999952316,19189.89999985695,19702.5,20990.5,21450.200000047684,22523,23058.700000047684,27240.89999985695,30119.5,30761.89999985695,31549.5,31983.099999904633,32532.099999904633,32979.39999985695,33524,34043.89999985695,34577.5,35161.700000047684,35686.89999985695,36120,36646.59999990463,37238.39999985695,37627.5,40108.200000047684,43732.200000047684,44442.5,50070.799999952316,52760.5,53208.200000047684,53695.200000047684,54357.200000047684,55052.799999952316,55523.39999985695,56035.39999985695,56627.5,57057,57551.700000047684,58288.700000047684,58902,59390.700000047684,62329,65872.79999995232,66678.89999985695,67563.89999985695,68092.39999985695,68685.29999995232,69222,69800.59999990463,70282.20000004768,70721.89999985695,71257,72015.70000004768,72501.70000004768,73075.70000004768,73723.70000004768,77968,86291.39999985695,87018.89999985695,87528.5,89144.79999995232],"honeypot":0,"survey":"mace","page":6,"trial_type":"survey-mace","trial_index":14,"time_elapsed":540724,"internal_node_id":"0.0-14.0","task_version":"prescreen-v0.3","browser_interactions":0},{"responses":{"01":"No","02":"No","03":"No","04":"No","05":"No","06":"No","07":"No"},"rt":21165.299999952316,"item_order":[0,1,2,3,4,5,6],"radio_events":[4046.4000000953674,6368.099999904633,11872.400000095367,16330.299999952316,17257.599999904633,19246.700000047684,20181.299999952316],"checkbox_events":[],"key_events":[],"mouse_events":[4046.4000000953674,6368.099999904633,11872.400000095367,16330.299999952316,17257.599999904633,18614.900000095367,19246.700000047684,20181.299999952316,21155.200000047684],"honeypot":0,"survey":"mace","page":7,"trial_type":"survey-mace","trial_index":15,"time_elapsed":561895,"internal_node_id":"0.0-15.0","task_version":"prescreen-v0.3","browser_interactions":0},{"responses":{"01":"No","02":"No","03":"Yes","03_ages_11":"11","03_ages_12":"12","03_ages_13":"13","03_ages_14":"14","03_ages_15":"15","03_ages_16":"16","03_ages_17":"17","03_ages_18":"18","04":"Yes","04_ages_6":"6","04_ages_7":"7","04_ages_8":"8","04_ages_9":"9","04_ages_10":"10","04_ages_11":"11","04_ages_12":"12","04_ages_13":"13","04_ages_14":"14","04_ages_15":"15","04_ages_16":"16","04_ages_17":"17"},"rt":56590.39999985695,"item_order":[0,1,2,3],"radio_events":[7272.199999809265,8677.899999856949,15098.699999809265,34636],"checkbox_events":[22288.199999809265,22777.099999904633,23470.599999904633,24034.199999809265,24589.299999952316,25116.699999809265,25764.299999952316,26491.5,27090.699999809265,27958.299999952316,39474.89999985695,40397.09999990463,41075.199999809265,41745.39999985695,42327.5,42856.299999952316,50806.09999990463,51821.09999990463,52554.199999809265,53218,53850.699999809265,54306],"key_events":[],"mouse_events":[7272.199999809265,8677.899999856949,15098.699999809265,22288.199999809265,22777.099999904633,23470.599999904633,24034.199999809265,24589.299999952316,25116.699999809265,25764.299999952316,26491.5,27090.699999809265,27958.299999952316,28855.89999985695,34636,39474.89999985695,40397.09999990463,41075.199999809265,41745.39999985695,42327.5,42856.299999952316,50806.09999990463,51357.59999990463,51821.09999990463,52554.199999809265,53218,53850.699999809265,54306,56583.09999990463],"honeypot":0,"survey":"mace","page":8,"trial_type":"survey-mace","trial_index":16,"time_elapsed":618487,"internal_node_id":"0.0-16.0","task_version":"prescreen-v0.3","browser_interactions":0},{"responses":{"01":"Yes","01_ages_1":"1","01_ages_2":"2","01_ages_3":"3","01_ages_4":"4","01_ages_5":"5","01_ages_6":"6","01_ages_7":"7","01_ages_8":"8","01_ages_9":"9","01_ages_10":"10","01_ages_11":"11","01_ages_12":"12","01_ages_13":"13","01_ages_14":"14","01_ages_15":"15","01_ages_16":"16","01_ages_17":"17","01_ages_18":"18","02":"Yes","02_ages_1":"1","02_ages_2":"2","02_ages_3":"3","02_ages_4":"4","02_ages_5":"5","02_ages_6":"6","02_ages_7":"7","02_ages_8":"8","02_ages_9":"9","02_ages_10":"10","02_ages_11":"11","02_ages_12":"12","02_ages_13":"13","02_ages_14":"14","02_ages_15":"15","02_ages_16":"16","02_ages_17":"17","02_ages_18":"18","03":"Yes","03_ages_1":"1","03_ages_2":"2","03_ages_3":"3","03_ages_4":"4","03_ages_5":"5","03_ages_6":"6","03_ages_7":"7","03_ages_8":"8","03_ages_9":"9","03_ages_10":"10","03_ages_11":"11","03_ages_12":"12","03_ages_13":"13","03_ages_14":"14","03_ages_15":"15","03_ages_16":"16","03_ages_17":"17","03_ages_18":"18","04":"Yes","04_ages_1":"1","04_ages_2":"2","04_ages_3":"3","04_ages_4":"4","04_ages_5":"5","04_ages_6":"6","04_ages_7":"7","04_ages_8":"8","04_ages_9":"9","04_ages_10":"10","04_ages_11":"11","04_ages_12":"12","04_ages_13":"13","04_ages_14":"14","04_ages_15":"15","04_ages_16":"16","04_ages_17":"17","04_ages_18":"18"},"rt":74420.40000009537,"item_order":[0,1,2,3],"radio_events":[6403.299999952316,22982.5,38953.90000009537,56933.200000047684],"checkbox_events":[9368.5,11138.400000095367,11668.400000095367,12168.799999952316,12745.5,13376.100000143051,14007,14591.200000047684,15119,15659.299999952316,16300.299999952316,16789,17498.799999952316,18098,18578,19135.299999952316,19584,20255.10000014305,24093.799999952316,24625.60000014305,25123.200000047684,26233.5,26727.400000095367,27559.200000047684,28062.200000047684,28653.700000047684,29212.200000047684,29924.799999952316,30433.900000095367,31074.799999952316,31608.400000095367,32443.400000095367,32936.40000009537,33511.40000009537,34121.700000047684,34760,41583.40000009537,42161,42711,43186.90000009537,43721.799999952316,44475.200000047684,45135.700000047684,45936.200000047684,46418.700000047684,47358.200000047684,48094,49060.700000047684,49670.90000009537,50195.90000009537,50706.200000047684,51362.90000009537,52065.5,52991.5,62698.200000047684,63243.10000014305,63904.60000014305,64449.10000014305,64956.10000014305,65699.10000014305,66294.70000004768,66942.90000009537,67573.40000009537,68117.10000014305,68923,69611.70000004768,70173.29999995232,70865.40000009537,71721.70000004768,72231.79999995232,72935.20000004768,73470.60000014305],"key_events":[],"mouse_events":[6403.299999952316,8822.799999952316,9368.5,10100.100000143051,11138.400000095367,11668.400000095367,12168.799999952316,12745.5,13376.100000143051,14007,14591.200000047684,15119,15659.299999952316,16300.299999952316,16789,17498.799999952316,18098,18578,19135.299999952316,19584,20255.10000014305,22982.5,24093.799999952316,24625.60000014305,25123.200000047684,25671.400000095367,26233.5,26727.400000095367,27559.200000047684,28062.200000047684,28653.700000047684,29212.200000047684,29924.799999952316,30433.900000095367,31074.799999952316,31608.400000095367,32443.400000095367,32936.40000009537,33511.40000009537,34121.700000047684,34760,37817,38953.90000009537,41583.40000009537,42161,42711,43186.90000009537,43721.799999952316,44475.200000047684,45135.700000047684,45936.200000047684,46418.700000047684,47358.200000047684,48094,48549.10000014305,49060.700000047684,49670.90000009537,50195.90000009537,50706.200000047684,51362.90000009537,52065.5,52991.5,53686.40000009537,56933.200000047684,62698.200000047684,63243.10000014305,63904.60000014305,64449.10000014305,64956.10000014305,65699.10000014305,66294.70000004768,66942.90000009537,67573.40000009537,68117.10000014305,68923,69611.70000004768,70173.29999995232,70865.40000009537,71721.70000004768,72231.79999995232,72935.20000004768,73470.60000014305,74413.60000014305],"honeypot":0,"survey":"mace","page":9,"trial_type":"survey-mace","trial_index":17,"time_elapsed":692911,"internal_node_id":"0.0-17.0","task_version":"prescreen-v0.3","browser_interactions":0},{"responses":{"01":"No","02":"No","03":"No","04":"No","05":"No","06":"Yes","06_ages_17":"17","07":"Yes","07_ages_1":"1","07_ages_2":"2","07_ages_3":"3","07_ages_4":"4","07_ages_5":"5","07_ages_6":"6","07_ages_7":"7","07_ages_8":"8","07_ages_9":"9","07_ages_10":"10","07_ages_11":"11","07_ages_12":"12","07_ages_13":"13","07_ages_14":"14","07_ages_15":"15","07_ages_16":"16","07_ages_17":"17","07_ages_18":"18","08":"Yes","08_ages_1":"1","08_ages_2":"2","08_ages_3":"3","08_ages_4":"4","08_ages_5":"5","08_ages_6":"6","08_ages_7":"7","08_ages_8":"8","08_ages_9":"9","08_ages_10":"10","08_ages_11":"11","08_ages_12":"12","08_ages_13":"13","08_ages_14":"14","08_ages_15":"15","08_ages_16":"16","08_ages_17":"17","08_ages_18":"18"},"rt":63192.09999990463,"item_order":[0,1,2,3,4,5,6,7],"radio_events":[2998.0999999046326,4307.700000047684,6808.5,18382.599999904633,24559.799999952316,26911,31839.89999985695,47954.39999985695],"checkbox_events":[28410.299999952316,35658,36161,36831.200000047684,37400.5,37856.09999990463,38524.200000047684,39078.200000047684,39548.200000047684,40109.700000047684,40781.39999985695,41358.200000047684,41944.200000047684,42489.59999990463,43081.89999985695,43632.09999990463,44208.700000047684,44791,45360.700000047684,51177.299999952316,51663,52263.59999990463,53030.59999990463,54080.200000047684,54565.700000047684,55213.09999990463,55724,56267.89999985695,56858.299999952316,57369.299999952316,58672.89999985695,59437.700000047684,59998.5,60596.09999990463,61640,62117.39999985695,62652.299999952316],"key_events":[],"mouse_events":[2998.0999999046326,4307.700000047684,6808.5,18382.599999904633,21066,24559.799999952316,26911,28410.299999952316,29272,31839.89999985695,33539.299999952316,35658,36161,36831.200000047684,37400.5,37856.09999990463,38524.200000047684,39078.200000047684,39548.200000047684,40109.700000047684,40781.39999985695,41358.200000047684,41944.200000047684,42489.59999990463,43081.89999985695,43632.09999990463,44208.700000047684,44791,45360.700000047684,45951.59999990463,47954.39999985695,51177.299999952316,51663,52263.59999990463,53030.59999990463,53533.200000047684,54080.200000047684,54565.700000047684,55213.09999990463,55724,56267.89999985695,56858.299999952316,57369.299999952316,58024.799999952316,58672.89999985695,59437.700000047684,59998.5,60596.09999990463,61181.89999985695,61640,62117.39999985695,62652.299999952316,63180.5],"honeypot":0,"survey":"mace","page":10,"trial_type":"survey-mace","trial_index":18,"time_elapsed":756109,"internal_node_id":"0.0-18.0","task_version":"prescreen-v0.3","browser_interactions":0,"instructed":0},{"rt":7600.400000095367,"trial_type":"mental-health-alert","trial_index":19,"time_elapsed":763712,"internal_node_id":"0.0-19.0","task_version":"prescreen-v0.3","interactions":"[]"}]