[{"view_history":[{"page_index":0,"viewing_time":6491.200000047684},{"page_index":1,"viewing_time":7609.799999952316},{"page_index":2,"viewing_time":6206.200000047684},{"page_index":3,"viewing_time":1748.8999999761581}],"rt":22058,"trial_type":"instructions","trial_index":0,"time_elapsed":22064,"internal_node_id":"0.0-0.0","task_version":"prescreen-v0.3"},{"rt":22942.600000023842,"responses":{"age":"57","gender-categorical":"Male","gender-free-response":"","ethnicity":"Not Hispanic or Latino","race":["White"],"education":"Bachelor degree"},"trial_type":"survey-demo","trial_index":1,"time_elapsed":45020,"internal_node_id":"0.0-1.0","task_version":"prescreen-v0.3"},{"responses":{"Q19":"1","Q21":"3","Q12":"0","Q13":"1","Q16":"0","Q06":"2","Q20":"0","Q15":"0","Q02":"0","Q04":"0","Q01":"0","Q14":"0","Q18":"0","Q11":"0","Q05":"0","Q09":"0","Q08":"0","Q17":"0","Q07":"0","Q10":"0","Q03":"0"},"rt":140768.5,"item_order":[18,20,11,12,15,5,19,14,1,3,0,13,17,10,4,8,7,16,6,9,2],"radio_events":[12783.299999952316,18500.199999928474,25278.699999928474,33234.299999952316,40395.5,49666.299999952316,54157.299999952316,74231,79160.89999997616,86003.69999992847,92367.60000002384,96423.29999995232,100439.39999997616,102932.39999997616,113394,117217.10000002384,119514.79999995232,123145.89999997616,131531,134875.69999992847,138772.69999992847],"key_events":[],"mouse_events":[12783.299999952316,18500.199999928474,25278.699999928474,33234.299999952316,40395.5,49666.299999952316,54157.299999952316,74231,79160.89999997616,86003.69999992847,92367.60000002384,96423.29999995232,100439.39999997616,102932.39999997616,113394,117217.10000002384,119514.79999995232,123145.89999997616,131531,134875.69999992847,138772.69999992847,140762.10000002384],"straightlining":0.8095238095238095,"zigzagging":0.15,"honeypot":0,"survey":"sns","trial_type":"survey-template","trial_index":2,"time_elapsed":185807,"internal_node_id":"0.0-2.0","task_version":"prescreen-v0.3","browser_interactions":0,"infrequency":0},{"responses":{"Q06":"3","Q09":"2","Q10":"2","Q13":"0","Q07":"3","Q02":"1","Q11":"2","Q08":"3","Q04":"1","Q03":"0","Q12":"2","Q01":"2","Q05":"3"},"rt":92105.70000004768,"item_order":[5,8,9,12,6,1,10,7,3,2,11,0,4],"radio_events":[7974.600000023842,14078.800000071526,19416,22496.100000023842,29229.700000047684,37083.10000002384,43117.60000002384,55903.300000071526,65552.39999997616,72912.89999997616,83313.80000007153,85758.5,90488.10000002384],"key_events":[],"mouse_events":[7974.600000023842,14078.800000071526,19416,22496.100000023842,29229.700000047684,37083.10000002384,43117.60000002384,55903.300000071526,65552.39999997616,72912.89999997616,83313.80000007153,85758.5,90488.10000002384,92102],"straightlining":0.38461538461538464,"zigzagging":0.5,"honeypot":0,"survey":"bisbas","trial_type":"survey-template","trial_index":3,"time_elapsed":277922,"internal_node_id":"0.0-3.0","task_version":"prescreen-v0.3","browser_interactions":0,"infrequency":0},{"responses":{"Q01":"4","Q02":"4","Q03":"4"},"rt":32331.399999976158,"radio_events":[9303.100000023842,18544.800000071526,30961.600000023842],"key_events":[],"mouse_events":[9303.100000023842,18544.800000071526,30961.600000023842,32329.399999976158],"survey":"map","page":1,"trial_type":"survey-map","trial_index":4,"time_elapsed":310258,"internal_node_id":"0.0-4.0","task_version":"prescreen-v0.3","browser_interactions":0},{"responses":{"Q04":"3","Q05":"3","Q06":"3"},"rt":24011.299999952316,"radio_events":[7008.600000023842,16458.899999976158,22344.899999976158],"key_events":[],"mouse_events":[7008.600000023842,16458.899999976158,22344.899999976158,24009.700000047684],"survey":"map","page":2,"trial_type":"survey-map","trial_index":5,"time_elapsed":334273,"internal_node_id":"0.0-5.0","task_version":"prescreen-v0.3","browser_interactions":0},{"responses":{"Q07":"4","Q08":"4","Q09":"3"},"rt":22699.600000023842,"radio_events":[8797,14794.399999976158,20806.199999928474],"key_events":[],"mouse_events":[8797,14794.399999976158,20806.199999928474,22698],"survey":"map","page":3,"trial_type":"survey-map","trial_index":6,"time_elapsed":356977,"internal_node_id":"0.0-6.0","task_version":"prescreen-v0.3","browser_interactions":0},{"responses":{"Q10":"3","Q11":"1","Q12":"4","Q13":"4","Q16":"0","Q14":"3","Q15":"2"},"rt":80604.20000004768,"radio_events":[9742.200000047684,17611.5,42108.60000002384,56768.200000047684,61382.60000002384,67240.70000004768,77860.5],"key_events":[],"mouse_events":[9742.200000047684,17611.5,25473.300000071526,42108.60000002384,56768.200000047684,61382.60000002384,67240.70000004768,69023.10000002384,77860.5,80601.30000007153],"survey":"map","page":4,"trial_type":"survey-map","trial_index":7,"time_elapsed":437584,"internal_node_id":"0.0-7.0","task_version":"prescreen-v0.3","browser_interactions":0,"infrequency":0},{"view_history":[{"page_index":0,"viewing_time":5554.5},{"page_index":1,"viewing_time":7998}],"rt":13554.700000047684,"trial_type":"instructions","trial_index":8,"time_elapsed":451140,"internal_node_id":"0.0-8.0","task_version":"prescreen-v0.3"},{"responses":{"01":"No","02":"No","03":"No","04":"No","05":"No","06":"No"},"rt":29816.600000023842,"item_order":[0,1,2,3,4,5],"radio_events":[9559.5,15611.399999976158,21040.5,23150.799999952316,25461.299999952316,27692],"checkbox_events":[],"key_events":[],"mouse_events":[0.10000002384185791,9559.5,15611.399999976158,21040.5,23150.799999952316,25461.299999952316,27692,29811.899999976158],"honeypot":0,"survey":"mace","page":1,"trial_type":"survey-mace","trial_index":9,"time_elapsed":480966,"internal_node_id":"0.0-9.0","task_version":"prescreen-v0.3","browser_interactions":0},{"responses":{"01":"No","02":"No","03":"Yes","03_ages_3":"3","03_ages_4":"4","03_ages_5":"5","03_ages_6":"6","03_ages_7":"7","03_ages_8":"8","03_ages_9":"9","04":"No","05":"Yes","05_ages_3":"3","05_ages_4":"4","05_ages_5":"5","05_ages_6":"6","05_ages_7":"7","05_ages_8":"8","05_ages_9":"9","06":"No","07":"No","08":"No"},"rt":65466.700000047684,"item_order":[0,1,2,3,4,5,6,7],"radio_events":[4779,8822.400000095367,11872.600000023842,34013.60000002384,37263.5,55303,57570.40000009537,63739.5],"checkbox_events":[19380.200000047684,20844.5,22561.800000071526,24043.300000071526,25390.800000071526,26741.5,28302.5,44501.40000009537,45668.90000009537,46883.300000071526,48162.300000071526,49840.10000002384,51430.60000002384,53225.10000002384],"key_events":[],"mouse_events":[4779,8822.400000095367,11872.600000023842,19380.200000047684,20844.5,22561.800000071526,24043.300000071526,25390.800000071526,26741.5,28302.5,34013.60000002384,37263.5,44501.40000009537,45668.90000009537,46883.300000071526,48162.300000071526,49840.10000002384,51430.60000002384,53225.10000002384,55303,57570.40000009537,63739.5,65460.5],"honeypot":0,"survey":"mace","page":2,"trial_type":"survey-mace","trial_index":10,"time_elapsed":546437,"internal_node_id":"0.0-10.0","task_version":"prescreen-v0.3","browser_interactions":0},{"responses":{"01":"No","02":"No","03":"No","04":"No"},"rt":14835.5,"item_order":[0,1,2,3],"radio_events":[6115.299999952316,8621,11670.599999904633,13361.5],"checkbox_events":[],"key_events":[],"mouse_events":[6115.299999952316,8621,11670.599999904633,13361.5,14830.5],"honeypot":0,"survey":"mace","page":3,"trial_type":"survey-mace","trial_index":11,"time_elapsed":561276,"internal_node_id":"0.0-11.0","task_version":"prescreen-v0.3","browser_interactions":0},{"responses":{"01":"No","02":"No"},"rt":8054.899999976158,"item_order":[0,1],"radio_events":[4020.5999999046326,6019.899999976158],"checkbox_events":[],"key_events":[],"mouse_events":[4020.5999999046326,6019.899999976158,8051.599999904633],"honeypot":0,"survey":"mace","page":4,"trial_type":"survey-mace","trial_index":12,"time_elapsed":569334,"internal_node_id":"0.0-12.0","task_version":"prescreen-v0.3","browser_interactions":0},{"responses":{"01":"No","02":"No","03":"No","04":"No","05":"No"},"rt":31189.799999952316,"item_order":[0,1,2,3,4],"radio_events":[12507,16751.899999976158,19571.899999976158,27624.600000023842,29443.299999952316],"checkbox_events":[],"key_events":[],"mouse_events":[12507,16751.899999976158,19571.899999976158,25847.799999952316,27624.600000023842,29443.299999952316,31185.799999952316],"honeypot":0,"survey":"mace","page":5,"trial_type":"survey-mace","trial_index":13,"time_elapsed":600533,"internal_node_id":"0.0-13.0","task_version":"prescreen-v0.3","browser_interactions":0},{"responses":{"01":"No","02":"No","03":"No","04":"No","05":"No"},"rt":21851.199999928474,"item_order":[0,1,2,3,4],"radio_events":[3713.1999999284744,9117.399999976158,13646.5,17365.299999952316,20005.299999952316],"checkbox_events":[],"key_events":[],"mouse_events":[3713.1999999284744,9117.399999976158,13646.5,17365.299999952316,20005.299999952316,21848],"honeypot":0,"survey":"mace","page":6,"trial_type":"survey-mace","trial_index":14,"time_elapsed":622390,"internal_node_id":"0.0-14.0","task_version":"prescreen-v0.3","browser_interactions":0},{"responses":{"01":"No","02":"No","03":"No","04":"No","05":"No","06":"No","07":"No"},"rt":26469.700000047684,"item_order":[0,1,2,3,4,5,6],"radio_events":[4121.700000047684,7414,10836.899999976158,14881.200000047684,21099.700000047684,23125.799999952316,24919.799999952316],"checkbox_events":[],"key_events":[],"mouse_events":[4121.700000047684,7414,10836.899999976158,14881.200000047684,21099.700000047684,23125.799999952316,24919.799999952316,26464.299999952316],"honeypot":0,"survey":"mace","page":7,"trial_type":"survey-mace","trial_index":15,"time_elapsed":648865,"internal_node_id":"0.0-15.0","task_version":"prescreen-v0.3","browser_interactions":0},{"responses":{"01":"No","02":"No","03":"No","04":"No"},"rt":31147,"item_order":[0,1,2,3],"radio_events":[14777,19547.100000023842,24875.199999928474,29619.699999928474],"checkbox_events":[],"key_events":[],"mouse_events":[14777,19547.100000023842,24875.199999928474,29619.699999928474,31141.899999976158],"honeypot":0,"survey":"mace","page":8,"trial_type":"survey-mace","trial_index":16,"time_elapsed":680014,"internal_node_id":"0.0-16.0","task_version":"prescreen-v0.3","browser_interactions":0},{"responses":{"01":"Yes","01_ages_1":"1","01_ages_2":"2","01_ages_3":"3","01_ages_4":"4","01_ages_5":"5","01_ages_6":"6","01_ages_7":"7","01_ages_8":"8","01_ages_9":"9","01_ages_10":"10","01_ages_11":"11","01_ages_12":"12","01_ages_13":"13","01_ages_14":"14","01_ages_15":"15","01_ages_16":"16","01_ages_17":"17","01_ages_18":"18","02":"Yes","02_ages_1":"1","02_ages_2":"2","02_ages_3":"3","02_ages_4":"4","02_ages_5":"5","02_ages_6":"6","02_ages_7":"7","02_ages_8":"8","02_ages_9":"9","02_ages_10":"10","02_ages_11":"11","02_ages_12":"12","02_ages_13":"13","02_ages_14":"14","02_ages_15":"15","02_ages_16":"16","02_ages_17":"17","02_ages_18":"18","03":"Yes","03_ages_1":"1","03_ages_2":"2","03_ages_3":"3","03_ages_4":"4","03_ages_5":"5","03_ages_6":"6","03_ages_7":"7","03_ages_8":"8","03_ages_9":"9","03_ages_10":"10","03_ages_11":"11","03_ages_12":"12","03_ages_13":"13","03_ages_14":"14","03_ages_15":"15","03_ages_16":"16","03_ages_17":"17","03_ages_18":"18","04":"Yes","04_ages_1":"1","04_ages_2":"2","04_ages_3":"3","04_ages_4":"4","04_ages_5":"5","04_ages_6":"6","04_ages_7":"7","04_ages_8":"8","04_ages_9":"9","04_ages_10":"10","04_ages_11":"11","04_ages_12":"12","04_ages_13":"13","04_ages_14":"14","04_ages_15":"15","04_ages_16":"16","04_ages_17":"17","04_ages_18":"18"},"rt":118496.60000002384,"item_order":[0,1,2,3],"radio_events":[5063.699999928474,38107.799999952316,66614.10000002384,94630.5],"checkbox_events":[12080.299999952316,12849.600000023842,13814.600000023842,16489.699999928474,17490.899999976158,18515.399999976158,19398.899999976158,20438.100000023842,21247.399999976158,22463,23451,24359.5,26152.899999976158,28013.699999928474,29291.299999952316,30356.100000023842,31492,32658.799999952316,40216.60000002384,41006.199999928474,41678.60000002384,42805.799999952316,43987.39999997616,44999.10000002384,46384.799999952316,47444,48604.10000002384,50493,52175.89999997616,53679.199999928474,55044.39999997616,56256.10000002384,57464.699999928474,58576.10000002384,59964.299999952316,61201.5,71643,72318.39999997616,73005.19999992847,73891.89999997616,74954.89999997616,76117.5,77210,78356.29999995232,79197.39999997616,80339.60000002384,81349,82662.39999997616,83604.29999995232,85171.5,86339.19999992847,87596.69999992847,88710,89824.89999997616,96374.5,97274.39999997616,98160.79999995232,99026.89999997616,99920.79999995232,100855.29999995232,101747.39999997616,102875.5,103994.5,105046.39999997616,106290,107479,108592.5,109667.89999997616,110661.10000002384,112180.29999995232,113174.69999992847,114889.60000002384],"key_events":[],"mouse_events":[5063.699999928474,12080.299999952316,12849.600000023842,13814.600000023842,16489.699999928474,17490.899999976158,18515.399999976158,19398.899999976158,20438.100000023842,21247.399999976158,22463,23451,24359.5,26152.899999976158,28013.699999928474,29291.299999952316,30356.100000023842,31492,32658.799999952316,38107.799999952316,40216.60000002384,41006.199999928474,41678.60000002384,42805.799999952316,43987.39999997616,44999.10000002384,46384.799999952316,47444,48604.10000002384,50493,52175.89999997616,53679.199999928474,55044.39999997616,56256.10000002384,57464.699999928474,58576.10000002384,59964.299999952316,61201.5,66614.10000002384,71643,72318.39999997616,73005.19999992847,73891.89999997616,74954.89999997616,76117.5,77210,78356.29999995232,79197.39999997616,80339.60000002384,81349,82662.39999997616,83604.29999995232,85171.5,86339.19999992847,87596.69999992847,88710,89824.89999997616,94630.5,96374.5,97274.39999997616,98160.79999995232,99026.89999997616,99920.79999995232,100855.29999995232,101747.39999997616,102875.5,103994.5,105046.39999997616,106290,107479,108592.5,109667.89999997616,110661.10000002384,112180.29999995232,113174.69999992847,114889.60000002384,118490.89999997616],"honeypot":0,"survey":"mace","page":9,"trial_type":"survey-mace","trial_index":17,"time_elapsed":798518,"internal_node_id":"0.0-17.0","task_version":"prescreen-v0.3","browser_interactions":0},{"responses":{"01":"No","02":"No","03":"No","04":"No","05":"No","06":"Yes","06_ages_17":"17","07":"Yes","07_ages_1":"1","07_ages_2":"2","07_ages_3":"3","07_ages_4":"4","07_ages_5":"5","07_ages_6":"6","07_ages_7":"7","07_ages_8":"8","07_ages_9":"9","07_ages_10":"10","07_ages_11":"11","07_ages_12":"12","07_ages_13":"13","07_ages_14":"14","07_ages_15":"15","07_ages_16":"16","07_ages_17":"17","07_ages_18":"18","08":"Yes","08_ages_1":"1","08_ages_2":"2","08_ages_3":"3","08_ages_4":"4","08_ages_5":"5","08_ages_6":"6","08_ages_7":"7","08_ages_8":"8","08_ages_9":"9","08_ages_10":"10","08_ages_11":"11","08_ages_12":"12","08_ages_13":"13","08_ages_14":"14","08_ages_15":"15","08_ages_16":"16","08_ages_17":"17","08_ages_18":"18"},"rt":91692.10000002384,"item_order":[0,1,2,3,4,5,6,7],"radio_events":[4333.800000071526,8201.300000071526,11604.300000071526,14777.100000023842,18398.400000095367,26194.400000095367,34964.10000002384,65949.30000007153],"checkbox_events":[28568.700000047684,42717.800000071526,43716.300000071526,45277.200000047684,46236,47791.40000009537,48733.60000002384,50045.40000009537,51160.300000071526,51979.40000009537,53154.200000047684,54714.10000002384,55951.90000009537,56934.5,57966.700000047684,59066.5,60551.300000071526,61884.90000009537,62991.10000002384,70526.10000002384,72314.5,73153.70000004768,74259.10000002384,75332.90000009537,76783.40000009537,77846.20000004768,79064.10000002384,80344.90000009537,81370.5,82174,83388.60000002384,84395.30000007153,85803.10000002384,86607.60000002384,87658.70000004768,89120,90309.80000007153],"key_events":[],"mouse_events":[4333.800000071526,8201.300000071526,11604.300000071526,14777.100000023842,18398.400000095367,26194.400000095367,28568.700000047684,29976.400000095367,34964.10000002384,42717.800000071526,43716.300000071526,44375.60000002384,45277.200000047684,46236,47791.40000009537,48733.60000002384,50045.40000009537,51160.300000071526,51979.40000009537,53154.200000047684,54714.10000002384,55951.90000009537,56934.5,57966.700000047684,59066.5,60551.300000071526,61884.90000009537,62991.10000002384,65949.30000007153,70526.10000002384,72314.5,73153.70000004768,74259.10000002384,75332.90000009537,76783.40000009537,77846.20000004768,79064.10000002384,80344.90000009537,81370.5,82174,83388.60000002384,84395.30000007153,85803.10000002384,86607.60000002384,87658.70000004768,89120,90309.80000007153,91686.5],"honeypot":0,"survey":"mace","page":10,"trial_type":"survey-mace","trial_index":18,"time_elapsed":890221,"internal_node_id":"0.0-18.0","task_version":"prescreen-v0.3","browser_interactions":0,"instructed":0},{"rt":5128.899999976158,"trial_type":"mental-health-alert","trial_index":19,"time_elapsed":895352,"internal_node_id":"0.0-19.0","task_version":"prescreen-v0.3","interactions":"[]"}]