[{"view_history":[{"page_index":0,"viewing_time":3130.199999988079},{"page_index":1,"viewing_time":2348.600000023842},{"page_index":2,"viewing_time":2396.5},{"page_index":3,"viewing_time":1406.199999988079}],"rt":9282.399999976158,"trial_type":"instructions","trial_index":0,"time_elapsed":9294,"internal_node_id":"0.0-0.0","task_version":"prescreen-v0.3"},{"rt":20336.399999976158,"responses":{"age":"31","gender-categorical":"Male","gender-free-response":"","ethnicity":"Not Hispanic or Latino","race":["Asian"],"education":"Bachelor degree","siblings":"1"},"trial_type":"survey-demo","trial_index":1,"time_elapsed":29635,"internal_node_id":"0.0-1.0","task_version":"prescreen-v0.3"},{"responses":{"Q16":"2","Q06":"1","Q09":"0","Q19":"0","Q18":"0","Q21":"3","Q14":"3","Q12":"1","Q17":"1","Q11":"0","Q10":"0","Q02":"0","Q01":"1","Q07":"2","Q20":"0","Q15":"3","Q13":"0","Q08":"0","Q05":"0","Q04":"0","Q03":"3"},"rt":207793.59999996424,"item_order":[15,5,8,18,17,20,13,11,16,10,9,1,0,6,19,14,12,7,4,3,2],"radio_events":[21031.30000001192,51464.19999998808,55851.30000001192,67428.09999996424,77463.39999997616,80906.30000001192,86059.09999996424,107479.80000001192,133447.30000001192,138092.80000001192,142064.39999997616,146609.5,148780.80000001192,161370.19999998808,167615.89999997616,175568.5,182116,186369,196584.69999998808,204067.39999997616,206093.5],"key_events":[],"mouse_events":[21031.30000001192,49922.30000001192,50653.69999998808,51464.19999998808,54996,55851.30000001192,67428.09999996424,76699.30000001192,77463.39999997616,80906.30000001192,86059.09999996424,103925.80000001192,106760.59999996424,107479.80000001192,132456.19999998808,133447.30000001192,137440.89999997616,138092.80000001192,142064.39999997616,145596.69999998808,146609.5,148780.80000001192,160811.09999996424,161370.19999998808,166647.09999996424,167615.89999997616,175568.5,180508.59999996424,181094.09999996424,182116,186369,196584.69999998808,202874,204067.39999997616,206093.5,207790.30000001192],"straightlining":0.5238095238095238,"zigzagging":0.45,"honeypot":0,"survey":"sns","trial_type":"survey-template","trial_index":2,"time_elapsed":237431,"internal_node_id":"0.0-2.0","task_version":"prescreen-v0.3","browser_interactions":0,"infrequency":0},{"responses":{"Q01":"2","Q10":"3","Q02":"1","Q11":"3","Q13":"0","Q05":"3","Q06":"2","Q04":"1","Q07":"3","Q09":"3","Q12":"1","Q03":"1","Q08":"3"},"rt":96925,"item_order":[0,9,1,10,12,4,5,3,6,8,11,2,7],"radio_events":[6907.600000023842,12332.800000011921,18664.5,25900,28516.80000001192,33752.10000002384,45925.10000002384,57568.90000003576,62262.200000047684,63903.10000002384,64994.5,67458.80000001192,68327.40000003576,71948.30000001192,79035,86562,90298.60000002384,96023.60000002384],"key_events":[],"mouse_events":[5355.200000047684,6266.300000011921,6907.600000023842,12332.800000011921,18664.5,25900,28516.80000001192,33066.60000002384,33752.10000002384,45286.30000001192,45925.10000002384,57568.90000003576,62262.200000047684,63183,63903.10000002384,64994.5,67458.80000001192,68327.40000003576,71272.80000001192,71948.30000001192,79035,86562,89644.90000003576,90298.60000002384,96023.60000002384,96923.30000001192],"straightlining":0.46153846153846156,"zigzagging":0.4166666666666667,"honeypot":0,"survey":"bisbas","trial_type":"survey-template","trial_index":3,"time_elapsed":334359,"internal_node_id":"0.0-3.0","task_version":"prescreen-v0.3","browser_interactions":0,"infrequency":0},{"responses":{"Q01":"2","Q02":"2","Q03":"2"},"rt":27423.600000023842,"radio_events":[8442.300000011921,16215.900000035763,23518.900000035763],"key_events":[],"mouse_events":[7688.800000011921,8442.300000011921,16215.900000035763,23518.900000035763,26769.19999998808,27422.80000001192],"survey":"map","page":1,"trial_type":"survey-map","trial_index":4,"time_elapsed":361787,"internal_node_id":"0.0-4.0","task_version":"prescreen-v0.3","browser_interactions":0},{"responses":{"Q04":"3","Q05":"3","Q06":"3"},"rt":21214.700000047684,"radio_events":[7531.400000035763,11052.900000035763,17240.700000047684,20111.30000001192],"key_events":[],"mouse_events":[6282.400000035763,7531.400000035763,11052.900000035763,16520.80000001192,17240.700000047684,20111.30000001192,21213.900000035763],"survey":"map","page":2,"trial_type":"survey-map","trial_index":5,"time_elapsed":383006,"internal_node_id":"0.0-5.0","task_version":"prescreen-v0.3","browser_interactions":0},{"responses":{"Q07":"2","Q08":"2","Q09":"2"},"rt":24240.80000001192,"radio_events":[14272.200000047684,20201,23328.900000035763],"key_events":[],"mouse_events":[13461.800000011921,14272.200000047684,20201,23328.900000035763,24239.900000035763],"survey":"map","page":3,"trial_type":"survey-map","trial_index":6,"time_elapsed":407260,"internal_node_id":"0.0-6.0","task_version":"prescreen-v0.3","browser_interactions":0},{"responses":{"Q10":"2","Q11":"2","Q12":"1","Q13":"3","Q16":"0","Q14":"2","Q15":"2"},"rt":53773.39999997616,"radio_events":[5361.800000011921,10997.399999976158,23057.599999964237,35939.89999997616,43331.59999996424,49800.39999997616,52568],"key_events":[],"mouse_events":[5361.800000011921,10997.399999976158,14656.300000011921,15430.899999976158,22281.5,23057.599999964237,35939.89999997616,43331.59999996424,49147.80000001192,49800.39999997616,52568,53771.69999998808],"survey":"map","page":4,"trial_type":"survey-map","trial_index":7,"time_elapsed":461037,"internal_node_id":"0.0-7.0","task_version":"prescreen-v0.3","browser_interactions":0,"infrequency":0},{"view_history":[{"page_index":0,"viewing_time":4302.5},{"page_index":1,"viewing_time":4895.400000035763}],"rt":9198.600000023842,"trial_type":"instructions","trial_index":8,"time_elapsed":470239,"internal_node_id":"0.0-8.0","task_version":"prescreen-v0.3"},{"responses":{"01":"Yes","01_ages_5":"5","01_ages_6":"6","01_ages_7":"7","01_ages_8":"8","01_ages_9":"9","01_ages_10":"10","01_ages_11":"11","01_ages_12":"12","01_ages_13":"13","01_ages_14":"14","01_ages_15":"15","01_ages_16":"16","01_ages_17":"17","01_ages_18":"18","02":"Yes","02_ages_5":"5","02_ages_6":"6","02_ages_7":"7","02_ages_8":"8","02_ages_9":"9","02_ages_10":"10","02_ages_11":"11","02_ages_12":"12","02_ages_13":"13","02_ages_14":"14","02_ages_15":"15","02_ages_16":"16","02_ages_17":"17","02_ages_18":"18","03":"No","04":"No","05":"No","06":"No"},"rt":100105.30000001192,"item_order":[0,1,2,3,4,5],"radio_events":[25148.100000023842,58721.200000047684,80649.20000004768,84855,91279,99368.5],"checkbox_events":[34497.60000002384,35228.90000003576,35847.90000003576,36432.30000001192,37097.700000047684,37850.10000002384,39112.10000002384,39785.10000002384,40482.80000001192,41236.40000003576,42633.10000002384,43306.90000003576,44026.60000002384,44779.60000002384,64153.90000003576,64764.40000003576,65944.10000002384,66596.80000001192,67284.5,68531.5,69115.70000004768,70209,70916.10000002384,72052.60000002384,72693.40000003576,73315.5,73997.90000003576,74752.40000003576],"key_events":[],"mouse_events":[0.20000004768371582,25148.100000023842,34497.60000002384,35228.90000003576,35847.90000003576,36432.30000001192,37097.700000047684,37850.10000002384,38547.80000001192,39112.10000002384,39785.10000002384,40482.80000001192,41236.40000003576,41990.10000002384,42633.10000002384,43306.90000003576,44026.60000002384,44779.60000002384,58721.200000047684,64153.90000003576,64764.40000003576,65458.90000003576,65944.10000002384,66596.80000001192,67284.5,67934.20000004768,68531.5,69115.70000004768,70209,70916.10000002384,71579,72052.60000002384,72693.40000003576,73315.5,73997.90000003576,74752.40000003576,79974.70000004768,80649.20000004768,84855,91279,98584.20000004768,99368.5,100101.10000002384],"honeypot":0,"survey":"mace","page":1,"trial_type":"survey-mace","trial_index":9,"time_elapsed":570349,"internal_node_id":"0.0-9.0","task_version":"prescreen-v0.3","browser_interactions":0},{"responses":{"01":"No","02":"No","03":"Yes","03_ages_5":"5","03_ages_6":"6","03_ages_7":"7","03_ages_8":"8","03_ages_9":"9","03_ages_10":"10","03_ages_11":"11","03_ages_12":"12","04":"No","05":"Yes","05_ages_5":"5","05_ages_6":"6","05_ages_7":"7","05_ages_8":"8","05_ages_9":"9","05_ages_10":"10","06":"No","07":"No","08":"No"},"rt":59757.60000002384,"item_order":[0,1,2,3,4,5,6,7],"radio_events":[9102.600000023842,11103.699999988079,13950.300000011921,39353.60000002384,41727.60000002384,52989.39999997616,56150.60000002384,58862.5],"checkbox_events":[18980.19999998808,19646.100000023842,21703.100000023842,22838.19999998808,23469.600000023842,24491.5,25122,25999.19999998808,30117,30972,44440.69999998808,45043.69999998808,45733,46396.60000002384,47746.80000001192,49098.30000001192],"key_events":[],"mouse_events":[9102.600000023842,11103.699999988079,13950.300000011921,18980.19999998808,19646.100000023842,20700.19999998808,21703.100000023842,22838.19999998808,23469.600000023842,24491.5,25122,25999.19999998808,30117,30972,39353.60000002384,41727.60000002384,44440.69999998808,45043.69999998808,45733,46396.60000002384,47746.80000001192,48512.30000001192,49098.30000001192,52989.39999997616,56150.60000002384,58862.5,59751.19999998808],"honeypot":0,"survey":"mace","page":2,"trial_type":"survey-mace","trial_index":10,"time_elapsed":630111,"internal_node_id":"0.0-10.0","task_version":"prescreen-v0.3","browser_interactions":0},{"responses":{"01":"No","02":"No","03":"No","04":"No"},"rt":23775.19999998808,"item_order":[0,1,2,3],"radio_events":[15333.100000023842,17879.900000035763,20148.600000023842,21554.80000001192],"checkbox_events":[],"key_events":[],"mouse_events":[15333.100000023842,17879.900000035763,19597,20148.600000023842,21554.80000001192,23771.600000023842],"honeypot":0,"survey":"mace","page":3,"trial_type":"survey-mace","trial_index":11,"time_elapsed":653891,"internal_node_id":"0.0-11.0","task_version":"prescreen-v0.3","browser_interactions":0},{"responses":{"01":"No","02":"No"},"rt":19986.30000001192,"item_order":[0,1],"radio_events":[13232.899999976158,15303.399999976158],"checkbox_events":[],"key_events":[],"mouse_events":[12501.399999976158,13232.899999976158,15303.399999976158,19984.19999998808],"honeypot":0,"survey":"mace","page":4,"trial_type":"survey-mace","trial_index":12,"time_elapsed":673881,"internal_node_id":"0.0-12.0","task_version":"prescreen-v0.3","browser_interactions":0},{"responses":{"01":"No","02":"No","03":"No","04":"No","05":"No"},"rt":25297.600000023842,"item_order":[0,1,2,3,4],"radio_events":[9385.199999988079,13660.100000023842,19713.100000023842,23121.80000001192,24314.899999976158],"checkbox_events":[],"key_events":[],"mouse_events":[9385.199999988079,13660.100000023842,19084,19713.100000023842,23121.80000001192,24314.899999976158,25293.399999976158],"honeypot":0,"survey":"mace","page":5,"trial_type":"survey-mace","trial_index":13,"time_elapsed":699185,"internal_node_id":"0.0-13.0","task_version":"prescreen-v0.3","browser_interactions":0},{"responses":{"01":"Yes","01_ages_8":"8","01_ages_9":"9","01_ages_10":"10","01_ages_11":"11","01_ages_12":"12","01_ages_13":"13","01_ages_14":"14","01_ages_15":"15","01_ages_16":"16","01_ages_17":"17","02":"Yes","02_ages_8":"8","02_ages_9":"9","02_ages_10":"10","02_ages_11":"11","02_ages_12":"12","02_ages_13":"13","02_ages_14":"14","02_ages_15":"15","02_ages_16":"16","02_ages_17":"17","03":"No","04":"Yes","04_ages_8":"8","04_ages_9":"9","04_ages_10":"10","04_ages_11":"11","04_ages_12":"12","04_ages_13":"13","04_ages_14":"14","04_ages_15":"15","04_ages_16":"16","04_ages_17":"17","05":"Yes","05_ages_12":"12","05_ages_13":"13","05_ages_14":"14"},"rt":97131.5,"item_order":[0,1,2,3,4],"radio_events":[9203.699999988079,43124.39999997616,65434.09999996424,68617.89999997616,88137.69999998808],"checkbox_events":[16977.899999976158,17551.69999998808,18350.5,19374.30000001192,20411.5,21106.899999976158,21783.30000001192,22445.5,23075.5,23763.30000001192,24684.30000001192,36621.5,48175.59999996424,48831.19999998808,49463.59999996424,50111.5,50695.69999998808,51405.69999998808,52161.30000001192,53631.89999997616,54419.89999997616,58649.69999998808,70103.80000001192,70858.5,71433.39999997616,72083,72782.19999998808,73423.69999998808,74052.69999998808,77843.19999998808,78462.69999998808,79126.69999998808,91513.30000001192,92030.39999997616,95034.5],"key_events":[],"mouse_events":[9203.699999988079,16977.899999976158,17551.69999998808,18350.5,19374.30000001192,20411.5,21106.899999976158,21783.30000001192,22445.5,23075.5,23763.30000001192,24684.30000001192,33819.89999997616,36621.5,41482.89999997616,42371.89999997616,43124.39999997616,48175.59999996424,48831.19999998808,49463.59999996424,50111.5,50695.69999998808,51405.69999998808,52161.30000001192,52890.59999996424,53631.89999997616,54419.89999997616,58649.69999998808,65434.09999996424,68617.89999997616,70103.80000001192,70858.5,71433.39999997616,72083,72782.19999998808,73423.69999998808,74052.69999998808,76414.69999998808,77843.19999998808,78462.69999998808,79126.69999998808,88137.69999998808,91513.30000001192,92030.39999997616,95034.5,97127.30000001192],"honeypot":0,"survey":"mace","page":6,"trial_type":"survey-mace","trial_index":14,"time_elapsed":796319,"internal_node_id":"0.0-14.0","task_version":"prescreen-v0.3","browser_interactions":0},{"responses":{"01":"Yes","01_ages_13":"13","01_ages_14":"14","02":"No","03":"Yes","03_ages_11":"11","03_ages_12":"12","03_ages_13":"13","04":"Yes","04_ages_11":"11","04_ages_12":"12","05":"No","06":"No","07":"No"},"rt":52041.19999998808,"item_order":[0,1,2,3,4,5,6],"radio_events":[9867.199999988079,11476.199999988079,24020.599999964237,30748.399999976158,40875.299999952316,47928.39999997616,49874.299999952316,51113.09999996424],"checkbox_events":[13490.199999988079,14135.199999988079,17992.799999952316,18867.69999998808,33804.799999952316,34404.89999997616,36013.5,43350.69999998808,43922.89999997616],"key_events":[],"mouse_events":[9867.199999988079,11476.199999988079,13490.199999988079,14135.199999988079,17304.299999952316,17992.799999952316,18867.69999998808,24020.599999964237,29353.399999976158,30108.19999998808,30748.399999976158,33234.5,33804.799999952316,34404.89999997616,35293.69999998808,36013.5,40875.299999952316,42753.69999998808,43350.69999998808,43922.89999997616,47928.39999997616,49874.299999952316,51113.09999996424,52034.799999952316],"honeypot":0,"survey":"mace","page":7,"trial_type":"survey-mace","trial_index":15,"time_elapsed":848365,"internal_node_id":"0.0-15.0","task_version":"prescreen-v0.3","browser_interactions":0},{"responses":{"01":"No","02":"No","03":"No","04":"No"},"rt":21332.5,"item_order":[0,1,2,3],"radio_events":[10552,12014.600000023842,16953.700000047684,20385.100000023842],"checkbox_events":[],"key_events":[],"mouse_events":[10552,12014.600000023842,16953.700000047684,20385.100000023842,21329.5],"honeypot":0,"survey":"mace","page":8,"trial_type":"survey-mace","trial_index":16,"time_elapsed":869703,"internal_node_id":"0.0-16.0","task_version":"prescreen-v0.3","browser_interactions":0},{"responses":{"01":"Yes","01_ages_4":"4","01_ages_5":"5","01_ages_6":"6","01_ages_7":"7","01_ages_8":"8","01_ages_9":"9","01_ages_10":"10","01_ages_11":"11","01_ages_12":"12","01_ages_13":"13","01_ages_14":"14","01_ages_15":"15","01_ages_16":"16","01_ages_17":"17","01_ages_18":"18","02":"Yes","02_ages_5":"5","02_ages_6":"6","02_ages_7":"7","02_ages_8":"8","02_ages_9":"9","02_ages_10":"10","02_ages_11":"11","02_ages_12":"12","02_ages_13":"13","02_ages_14":"14","02_ages_15":"15","02_ages_16":"16","02_ages_17":"17","02_ages_18":"18","03":"Yes","03_ages_1":"1","03_ages_2":"2","03_ages_3":"3","03_ages_4":"4","03_ages_5":"5","03_ages_6":"6","03_ages_7":"7","03_ages_8":"8","03_ages_9":"9","03_ages_10":"10","03_ages_11":"11","03_ages_12":"12","03_ages_13":"13","03_ages_14":"14","03_ages_15":"15","03_ages_16":"16","03_ages_17":"17","03_ages_18":"18","04":"Yes","04_ages_1":"1","04_ages_2":"2","04_ages_3":"3","04_ages_4":"4","04_ages_5":"5","04_ages_6":"6","04_ages_7":"7","04_ages_8":"8","04_ages_9":"9","04_ages_10":"10","04_ages_11":"11","04_ages_12":"12","04_ages_13":"13","04_ages_14":"14","04_ages_15":"15","04_ages_16":"16","04_ages_17":"17","04_ages_18":"18"},"rt":87142.89999997616,"item_order":[0,1,2,3],"radio_events":[8734.5,28152.69999998808,46671.10000002384,69712],"checkbox_events":[11299.800000011921,11850.399999976158,12810.699999988079,13855.100000023842,14395,15675.600000023842,16282.899999976158,16946.69999998808,17802.5,19838.19999998808,20559.69999998808,21244.69999998808,21863.5,23281.5,23900.19999998808,31100.399999976158,31651.899999976158,32382.69999998808,33114.10000002384,33789.30000001192,34534.19999998808,35645.39999997616,36501.39999997616,37175.80000001192,37827.80000001192,38436.10000002384,39225.80000001192,40113,40933.60000002384,48111.89999997616,48696.19999998808,49405.10000002384,50475.19999998808,51159.80000001192,52073.89999997616,52645,53590.10000002384,55076.39999997616,55773.80000001192,57010.19999998808,57640.19999998808,58315.5,58990.19999998808,59845.39999997616,61805.39999997616,62422.10000002384,63276.80000001192,71062.5,72064.10000002384,72648.69999998808,73312.39999997616,74009.60000002384,75978.80000001192,77060.10000002384,77891.60000002384,78668.10000002384,79511.39999997616,80546.5,81300.30000001192,82234.19999998808,82956,83786.89999997616,84608.10000002384,85497.10000002384,86217.10000002384],"key_events":[],"mouse_events":[8734.5,11299.800000011921,11850.399999976158,12810.699999988079,13855.100000023842,14395,15126.100000023842,15675.600000023842,16282.899999976158,16946.69999998808,17802.5,18398.100000023842,19388.100000023842,19838.19999998808,20559.69999998808,21244.69999998808,21863.5,22686.30000001192,23281.5,23900.19999998808,27387.5,28152.69999998808,29874.19999998808,31100.399999976158,31651.899999976158,32382.69999998808,33114.10000002384,33789.30000001192,34534.19999998808,35645.39999997616,36501.39999997616,37175.80000001192,37827.80000001192,38436.10000002384,39225.80000001192,40113,40933.60000002384,46671.10000002384,48111.89999997616,48696.19999998808,49405.10000002384,50475.19999998808,51159.80000001192,52073.89999997616,52645,53590.10000002384,54197.80000001192,55076.39999997616,55773.80000001192,56515.30000001192,57010.19999998808,57640.19999998808,58315.5,58990.19999998808,59845.39999997616,61805.39999997616,62422.10000002384,63276.80000001192,69712,71062.5,71535.19999998808,72064.10000002384,72648.69999998808,73312.39999997616,74009.60000002384,74831.69999998808,75978.80000001192,76631.5,77060.10000002384,77891.60000002384,78668.10000002384,79511.39999997616,80546.5,81300.30000001192,82234.19999998808,82956,83786.89999997616,84608.10000002384,85497.10000002384,86217.10000002384,87140.10000002384],"honeypot":0,"survey":"mace","page":9,"trial_type":"survey-mace","trial_index":17,"time_elapsed":956848,"internal_node_id":"0.0-17.0","task_version":"prescreen-v0.3","browser_interactions":0},{"responses":{"01":"No","02":"No","03":"No","04":"No","05":"Yes","05_ages_6":"6","05_ages_7":"7","05_ages_8":"8","05_ages_9":"9","05_ages_10":"10","05_ages_11":"11","05_ages_12":"12","05_ages_13":"13","06":"Yes","06_ages_17":"17","07":"Yes","07_ages_1":"1","07_ages_2":"2","07_ages_3":"3","07_ages_4":"4","07_ages_5":"5","07_ages_6":"6","07_ages_7":"7","07_ages_8":"8","07_ages_9":"9","07_ages_10":"10","07_ages_11":"11","07_ages_12":"12","07_ages_13":"13","07_ages_14":"14","07_ages_15":"15","07_ages_16":"16","07_ages_17":"17","07_ages_18":"18","08":"Yes","08_ages_5":"5","08_ages_6":"6","08_ages_7":"7","08_ages_8":"8","08_ages_9":"9","08_ages_10":"10","08_ages_11":"11","08_ages_12":"12","08_ages_13":"13","08_ages_14":"14","08_ages_15":"15","08_ages_16":"16","08_ages_17":"17","08_ages_18":"18"},"rt":100823.59999996424,"item_order":[0,1,2,3,4,5,6,7],"radio_events":[8196.5,9360.799999952316,12410.599999964237,19632.19999998808,24211.299999952316,32616.69999998808,53710.5,60494.39999997616,85898.39999997616],"checkbox_events":[37747.19999998808,38274.59999996424,38870.89999997616,40289.5,40862.39999997616,44790.799999952316,45542.69999998808,48625.5,55105.799999952316,65480,66087.39999997616,67213.39999997616,67842.09999996424,69204.19999998808,69798.89999997616,70440.19999998808,71103.79999995232,72296.29999995232,73466.29999995232,74289.5,75143.59999996424,75885.59999996424,76582.5,77584.79999995232,78337.89999997616,79294.29999995232,80825.69999998808,89557.79999995232,90196.19999998808,91287.19999998808,91963.09999996424,93054,94224.69999998808,94831.5,95540.09999996424,96147.39999997616,96856.59999996424,97521.59999996424,98232,99005.39999997616,99838.19999998808],"key_events":[],"mouse_events":[6392.199999988079,8196.5,9360.799999952316,12410.599999964237,19632.19999998808,23379.5,24211.299999952316,31749.599999964237,32616.69999998808,37747.19999998808,38274.59999996424,38870.89999997616,39515.09999996424,40289.5,40862.39999997616,42032.59999996424,44790.799999952316,45542.69999998808,48042.59999996424,48625.5,52113.799999952316,53075.89999997616,53710.5,55105.799999952316,60494.39999997616,64129.5,64589.89999997616,65480,66087.39999997616,66716.19999998808,67213.39999997616,67842.09999996424,68586.29999995232,69204.19999998808,69798.89999997616,70440.19999998808,71103.79999995232,71814.79999995232,72296.29999995232,72927.39999997616,73466.29999995232,74289.5,75143.59999996424,75885.59999996424,76582.5,77584.79999995232,78337.89999997616,79294.29999995232,79992.29999995232,80825.69999998808,85898.39999997616,89557.79999995232,90196.19999998808,90794.39999997616,91287.19999998808,91963.09999996424,93054,94224.69999998808,94831.5,95540.09999996424,96147.39999997616,96856.59999996424,97521.59999996424,98232,99005.39999997616,99838.19999998808,100818.09999996424],"honeypot":0,"survey":"mace","page":10,"trial_type":"survey-mace","trial_index":18,"time_elapsed":1057676,"internal_node_id":"0.0-18.0","task_version":"prescreen-v0.3","browser_interactions":0,"instructed":0},{"rt":4678.800000011921,"trial_type":"mental-health-alert","trial_index":19,"time_elapsed":1062360,"internal_node_id":"0.0-19.0","task_version":"prescreen-v0.3","interactions":"[]"}]