[{"view_history":[{"page_index":0,"viewing_time":2501.5},{"page_index":1,"viewing_time":3664},{"page_index":0,"viewing_time":2607.8000000044703},{"page_index":1,"viewing_time":2271.6999999955297},{"page_index":2,"viewing_time":1656},{"page_index":3,"viewing_time":967.8000000044703}],"rt":13669.80000000447,"trial_type":"instructions","trial_index":0,"time_elapsed":13696,"internal_node_id":"0.0-0.0","task_version":"prescreen-v0.3"},{"rt":18019.20000000298,"responses":{"age":"28","gender-categorical":"Male","gender-free-response":"","ethnicity":"Not Hispanic or Latino","race":["White"],"education":"Bachelor degree","siblings":"2"},"trial_type":"survey-demo","trial_index":1,"time_elapsed":31723,"internal_node_id":"0.0-1.0","task_version":"prescreen-v0.3"},{"responses":{"Q05":"3","Q16":"2","Q18":"2","Q10":"3","Q09":"2","Q11":"3","Q04":"3","Q06":"2","Q17":"3","Q12":"3","Q01":"3","Q15":"2","Q08":"2","Q13":"2","Q07":"1","Q21":"3","Q14":"2","Q03":"2","Q20":"2","Q19":"2","Q02":"3"},"rt":140868.3999999985,"item_order":[4,15,17,9,8,10,3,5,16,11,0,14,7,12,6,20,13,2,19,18,1],"radio_events":[4770.10000000149,11706.10000000149,28538,32042.10000000149,35601.69999999553,41865.69999999553,45345.79999999702,86450,90546,97769.89999999851,102953.89999999851,104633.89999999851,106618.29999999702,111705.79999999702,118793.39999999851,123890.10000000149,128001.89999999851,130385.79999999702,133433.69999999553,137961.8999999985,140361.79999999702],"key_events":[],"mouse_events":[3858.10000000149,4354.10000000149,4770.10000000149,11706.10000000149,28538,32042.10000000149,34890,35601.69999999553,41865.69999999553,45345.79999999702,85993.89999999851,86450,89602.10000000149,90097.79999999702,90546,97769.89999999851,102953.89999999851,104633.89999999851,105730.39999999851,106618.29999999702,111705.79999999702,118793.39999999851,123890.10000000149,128001.89999999851,130385.79999999702,133433.69999999553,137545.1000000015,137961.8999999985,140361.79999999702,140865.79999999702],"straightlining":0.5238095238095238,"zigzagging":0.5,"honeypot":0,"survey":"sns","trial_type":"survey-template","trial_index":2,"time_elapsed":172596,"internal_node_id":"0.0-2.0","task_version":"prescreen-v0.3","browser_interactions":2,"infrequency":0},{"responses":{"Q05":"3","Q08":"2","Q11":"2","Q01":"3","Q10":"3","Q12":"2","Q04":"3","Q13":"0","Q02":"3","Q09":"2","Q06":"3","Q03":"3","Q07":"3"},"rt":140850.5,"item_order":[4,7,10,0,9,11,3,12,1,8,5,2,6],"radio_events":[86289.09999999404,94561.5,96569.19999999553,98592.79999999702,102064.5,103673.19999999553,106720.59999999404,115896.69999999553,119592.29999999702,125289,129457.19999999553,133697,138857],"key_events":[],"mouse_events":[85945.39999999851,86289.09999999404,94561.5,96569.19999999553,98193.19999999553,98592.79999999702,101225.29999999702,102064.5,103673.19999999553,106720.59999999404,115896.69999999553,119592.29999999702,125289,129154.59999999404,129457.19999999553,133697,138857,140849.19999999553],"straightlining":0.6153846153846154,"zigzagging":0.6666666666666666,"honeypot":0,"survey":"bisbas","trial_type":"survey-template","trial_index":3,"time_elapsed":313449,"internal_node_id":"0.0-3.0","task_version":"prescreen-v0.3","browser_interactions":0,"infrequency":0},{"responses":{"Q01":"1","Q02":"1","Q03":"2"},"rt":23795.19999999553,"radio_events":[6122.89999999851,10034.5,23210.09999999404],"key_events":[],"mouse_events":[6122.89999999851,9282.39999999851,9634.69999999553,10034.5,23210.09999999404,23794.5],"survey":"map","page":1,"trial_type":"survey-map","trial_index":4,"time_elapsed":337248,"internal_node_id":"0.0-4.0","task_version":"prescreen-v0.3","browser_interactions":0},{"responses":{"Q04":"3","Q05":"1","Q06":"2"},"rt":12685.60000000149,"radio_events":[6068.39999999851,9548.60000000149,10868.5],"key_events":[],"mouse_events":[5716.89999999851,6068.39999999851,8996.80000000447,9548.60000000149,10508.20000000298,10868.5,12684.89999999851],"survey":"map","page":2,"trial_type":"survey-map","trial_index":5,"time_elapsed":349936,"internal_node_id":"0.0-5.0","task_version":"prescreen-v0.3","browser_interactions":0},{"responses":{"Q07":"3","Q08":"2","Q09":"2"},"rt":21590.30000000447,"radio_events":[7717.5,10837.5,20828.60000000149],"key_events":[],"mouse_events":[7222,7717.5,10421.40000000596,10837.5,20397.60000000149,20828.60000000149,21589.5],"survey":"map","page":3,"trial_type":"survey-map","trial_index":6,"time_elapsed":371528,"internal_node_id":"0.0-6.0","task_version":"prescreen-v0.3","browser_interactions":0},{"responses":{"Q10":"1","Q11":"0","Q12":"1","Q13":"0","Q16":"0","Q14":"2","Q15":"2"},"rt":100158,"radio_events":[3028.89999999851,42100.20000000298,49133.20000000298,53116.79999999702,58276.70000000298,78372.39999999851,99460.89999999851],"key_events":[],"mouse_events":[3028.89999999851,42100.20000000298,49133.20000000298,53116.79999999702,58276.70000000298,78372.39999999851,99460.89999999851,100156.70000000298],"survey":"map","page":4,"trial_type":"survey-map","trial_index":7,"time_elapsed":471691,"internal_node_id":"0.0-7.0","task_version":"prescreen-v0.3","browser_interactions":2,"infrequency":0},{"view_history":[{"page_index":0,"viewing_time":11324.5},{"page_index":1,"viewing_time":3240.10000000149}],"rt":14565.69999999553,"trial_type":"instructions","trial_index":8,"time_elapsed":486258,"internal_node_id":"0.0-8.0","task_version":"prescreen-v0.3"},{"responses":{"01":"No","01_ages_10":"10","01_ages_11":"11","01_ages_12":"12","01_ages_13":"13","02":"No","02_ages_10":"10","02_ages_11":"11","02_ages_12":"12","02_ages_13":"13","03":"No","04":"No","05":"No","06":"No"},"rt":69915.5,"item_order":[0,1,2,3,4,5],"radio_events":[3791.8000000044703,27991.39999999851,46128.20000000298,47527.5,48152,49183.89999999851,57880.10000000149,58735.89999999851],"checkbox_events":[7432.39999999851,8200.20000000298,8960.10000000149,9224.10000000149,28744.10000000149,29319.70000000298,30063.89999999851,30407.89999999851],"key_events":[],"mouse_events":[0.10000000149011612,3791.8000000044703,7432.39999999851,7735.80000000447,8200.20000000298,8415.70000000298,8960.10000000149,9224.10000000149,27991.39999999851,28744.10000000149,29319.70000000298,29711.39999999851,30063.89999999851,30407.89999999851,46128.20000000298,46935.30000000447,47527.5,48152,49183.89999999851,57519.39999999851,57880.10000000149,58735.89999999851,69912.20000000298],"honeypot":0,"survey":"mace","page":1,"trial_type":"survey-mace","trial_index":9,"time_elapsed":556179,"internal_node_id":"0.0-9.0","task_version":"prescreen-v0.3","browser_interactions":2},{"responses":{"01":"No","02":"No","03":"No","04":"No","05":"No","06":"No","07":"No","08":"No"},"rt":19155.10000000149,"item_order":[0,1,2,3,4,5,6,7],"radio_events":[6695.5,7159.10000000149,7711.39999999851,8311.19999999553,9055.29999999702,10878.79999999702,11631.19999999553,12991.19999999553],"checkbox_events":[],"key_events":[],"mouse_events":[6695.5,7159.10000000149,7711.39999999851,8311.19999999553,8751.60000000149,9055.29999999702,10159.19999999553,10551.19999999553,10878.79999999702,11271.19999999553,11631.19999999553,12991.19999999553,19150.79999999702],"honeypot":0,"survey":"mace","page":2,"trial_type":"survey-mace","trial_index":10,"time_elapsed":575339,"internal_node_id":"0.0-10.0","task_version":"prescreen-v0.3","browser_interactions":0},{"responses":{"01":"No","02":"No","03":"No","04":"No"},"rt":14186.60000000149,"item_order":[0,1,2,3],"radio_events":[5216.60000000149,5816.5,8200.39999999851,8992.30000000447],"checkbox_events":[],"key_events":[],"mouse_events":[5216.60000000149,5816.5,6263.89999999851,6912.20000000298,7656.20000000298,8200.39999999851,8992.30000000447,14184.30000000447],"honeypot":0,"survey":"mace","page":3,"trial_type":"survey-mace","trial_index":11,"time_elapsed":589529,"internal_node_id":"0.0-11.0","task_version":"prescreen-v0.3","browser_interactions":0},{"responses":{"01":"No","02":"No"},"rt":4284.39999999851,"item_order":[0,1],"radio_events":[3275.2999999970198,3723.2999999970198],"checkbox_events":[],"key_events":[],"mouse_events":[3275.2999999970198,3723.2999999970198,4283.10000000149],"honeypot":0,"survey":"mace","page":4,"trial_type":"survey-mace","trial_index":12,"time_elapsed":593815,"internal_node_id":"0.0-12.0","task_version":"prescreen-v0.3","browser_interactions":0},{"responses":{"01":"Yes","01_ages_5":"5","02":"No","03":"No","04":"No","05":"No"},"rt":62695.09999999404,"item_order":[0,1,2,3,4],"radio_events":[45028.19999999553,58780.29999999702,59412,61292,62156.09999999404],"checkbox_events":[48131.79999999702],"key_events":[],"mouse_events":[45028.19999999553,48131.79999999702,51684.09999999404,58780.29999999702,59412,61292,62156.09999999404,62692.29999999702],"honeypot":0,"survey":"mace","page":5,"trial_type":"survey-mace","trial_index":13,"time_elapsed":656516,"internal_node_id":"0.0-13.0","task_version":"prescreen-v0.3","browser_interactions":0},{"responses":{"01":"No","02":"No","03":"No","04":"Yes","04_ages_10":"10","05":"No"},"rt":15259.89999999851,"item_order":[0,1,2,3,4],"radio_events":[3393.5,3841.89999999851,8857.80000000447,9593.80000000447,14713.60000000149],"checkbox_events":[11273.30000000447],"key_events":[],"mouse_events":[3393.5,3841.89999999851,4361.89999999851,8857.80000000447,9593.80000000447,11273.30000000447,11977.89999999851,14713.60000000149,15257.30000000447],"honeypot":0,"survey":"mace","page":6,"trial_type":"survey-mace","trial_index":14,"time_elapsed":671779,"internal_node_id":"0.0-14.0","task_version":"prescreen-v0.3","browser_interactions":0},{"responses":{"01":"No","02":"No","03":"No","04":"No","05":"No","06":"No","07":"No"},"rt":28829.80000000447,"item_order":[0,1,2,3,4,5,6],"radio_events":[10529.80000000447,12826,14922,15721.90000000596,26338.10000000149,26866,28393.90000000596],"checkbox_events":[],"key_events":[],"mouse_events":[10529.80000000447,11465.80000000447,12826,13945.5,14561.60000000149,14922,15721.90000000596,25201.90000000596,26338.10000000149,26866,28393.90000000596,28825.90000000596],"honeypot":0,"survey":"mace","page":7,"trial_type":"survey-mace","trial_index":15,"time_elapsed":700609,"internal_node_id":"0.0-15.0","task_version":"prescreen-v0.3","browser_interactions":0},{"responses":{"01":"No","02":"No","03":"No","04":"Yes","04_ages_10":"10"},"rt":37035.5,"item_order":[0,1,2,3],"radio_events":[14969,16536.59999999404,19760.5,30824.89999999851],"checkbox_events":[35425],"key_events":[],"mouse_events":[14969,16536.59999999404,19760.5,30824.89999999851,35425,36224.89999999851,37033.19999999553],"honeypot":0,"survey":"mace","page":8,"trial_type":"survey-mace","trial_index":16,"time_elapsed":737648,"internal_node_id":"0.0-16.0","task_version":"prescreen-v0.3","browser_interactions":0},{"responses":{"01":"Yes","01_ages_1":"1","01_ages_2":"2","01_ages_3":"3","01_ages_4":"4","01_ages_5":"5","01_ages_6":"6","01_ages_7":"7","01_ages_8":"8","01_ages_9":"9","01_ages_10":"10","01_ages_11":"11","01_ages_12":"12","01_ages_13":"13","01_ages_14":"14","01_ages_15":"15","01_ages_16":"16","01_ages_17":"17","01_ages_18":"18","02":"Yes","02_ages_1":"1","02_ages_2":"2","02_ages_3":"3","02_ages_4":"4","02_ages_5":"5","02_ages_6":"6","02_ages_7":"7","02_ages_8":"8","02_ages_9":"9","02_ages_10":"10","02_ages_11":"11","02_ages_12":"12","02_ages_13":"13","02_ages_14":"14","02_ages_15":"15","02_ages_16":"16","02_ages_17":"17","02_ages_18":"18","03":"No","04":"Yes","04_ages_1":"1","04_ages_2":"2","04_ages_3":"3","04_ages_4":"4","04_ages_5":"5","04_ages_6":"6","04_ages_7":"7","04_ages_8":"8","04_ages_9":"9","04_ages_10":"10","04_ages_11":"11","04_ages_12":"12","04_ages_13":"13","04_ages_14":"14","04_ages_15":"15","04_ages_16":"16","04_ages_17":"17","04_ages_18":"18"},"rt":74308.89999999851,"item_order":[0,1,2,3],"radio_events":[3730.60000000149,29681.89999999851,47106.10000000149,51642.39999999851,61482.39999999851],"checkbox_events":[7722.29999999702,8234.69999999553,9418.79999999702,11106.5,11658.69999999553,13938.79999999702,14930.19999999553,15338,16138.5,16802.60000000149,23762.5,24346.19999999553,24786.19999999553,25090.29999999702,26066.69999999553,26610.79999999702,27202.5,28098.60000000149,30642.89999999851,30914.39999999851,31178.5,31538.5,32202,32762.29999999702,33322,37682.10000000149,37961.89999999851,38594.39999999851,38850.79999999702,39570.5,40226.5,40514.60000000149,40866.5,41410.19999999553,42186.19999999553,42834.5,63162.60000000149,63530.39999999851,64170.69999999553,64618.5,65242.5,65578.39999999851,66242.5,66754.79999999702,67426.39999999851,68234.60000000149,69050.5,69866.5,70178.69999999553,70602.39999999851,70994.39999999851,71466.39999999851,71922.29999999702,72610.5],"key_events":[],"mouse_events":[3730.60000000149,7306.29999999702,7722.29999999702,8234.69999999553,8970.29999999702,9418.79999999702,11106.5,11410.69999999553,11658.69999999553,12050.39999999851,13938.79999999702,14930.19999999553,15338,16138.5,16802.60000000149,23514.39999999851,23762.5,24346.19999999553,24786.19999999553,25090.29999999702,26066.69999999553,26610.79999999702,26954.39999999851,27202.5,28098.60000000149,29681.89999999851,30642.89999999851,30914.39999999851,31178.5,31538.5,31826.19999999553,32202,32531.10000000149,32762.29999999702,33322,37682.10000000149,37961.89999999851,38594.39999999851,38850.79999999702,39244.10000000149,39570.5,40226.5,40514.60000000149,40866.5,41170.19999999553,41410.19999999553,42186.19999999553,42834.5,47106.10000000149,51642.39999999851,61482.39999999851,63162.60000000149,63530.39999999851,63842.29999999702,64170.69999999553,64618.5,65242.5,65578.39999999851,66242.5,66754.79999999702,67426.39999999851,67770.5,68234.60000000149,68722.39999999851,69050.5,69426.60000000149,69866.5,70178.69999999553,70602.39999999851,70994.39999999851,71466.39999999851,71922.29999999702,72610.5,74306.79999999702],"honeypot":0,"survey":"mace","page":9,"trial_type":"survey-mace","trial_index":17,"time_elapsed":811957,"internal_node_id":"0.0-17.0","task_version":"prescreen-v0.3","browser_interactions":0},{"responses":{"01":"No","02":"No","03":"No","04":"No","05":"No","06":"Yes","06_ages_17":"17","07":"Yes","07_ages_1":"1","07_ages_2":"2","07_ages_3":"3","07_ages_4":"4","07_ages_5":"5","07_ages_6":"6","07_ages_7":"7","07_ages_8":"8","07_ages_9":"9","07_ages_10":"10","07_ages_11":"11","07_ages_12":"12","07_ages_13":"13","07_ages_14":"14","07_ages_15":"15","07_ages_16":"16","07_ages_17":"17","07_ages_18":"18","08":"Yes","08_ages_1":"1","08_ages_2":"2","08_ages_3":"3","08_ages_4":"4","08_ages_5":"5","08_ages_6":"6","08_ages_7":"7","08_ages_8":"8","08_ages_9":"9","08_ages_10":"10","08_ages_11":"11","08_ages_12":"12","08_ages_13":"13","08_ages_14":"14","08_ages_15":"15","08_ages_16":"16","08_ages_17":"17","08_ages_18":"18"},"rt":48438.5,"item_order":[0,1,2,3,4,5,6,7],"radio_events":[2313.89999999851,3754.1999999955297,4977.79999999702,6178.0999999940395,9433.79999999702,10073.89999999851,11250,14785.59999999404,19457.79999999702,37865.59999999404],"checkbox_events":[15897.39999999851,21769.89999999851,22066,24489.79999999702,24897.69999999553,26657.89999999851,27025.89999999851,27409.79999999702,27985.09999999404,28538,28946.29999999702,29337.89999999851,29650.39999999851,30241.79999999702,30745.5,31489.79999999702,31802,32161.69999999553,32874,39041.89999999851,39657.5,39969.19999999553,40401.89999999851,41169.79999999702,41545.39999999851,41945.89999999851,42753.39999999851,43137.59999999404,43481.79999999702,44121.79999999702,44530,44969.89999999851,45457.79999999702,46201.59999999404,46490.19999999553,46801.69999999553,47113.29999999702],"key_events":[],"mouse_events":[2313.89999999851,3754.1999999955297,4977.79999999702,6178.0999999940395,8898,9433.79999999702,10073.89999999851,11250,14785.59999999404,15897.39999999851,16457.09999999404,19457.79999999702,21769.89999999851,22066,22465.89999999851,22849.89999999851,24489.79999999702,24897.69999999553,25138,25593.19999999553,26657.89999999851,27025.89999999851,27409.79999999702,27985.09999999404,28538,28946.29999999702,29337.89999999851,29650.39999999851,29914.19999999553,30241.79999999702,30745.5,31153.69999999553,31489.79999999702,31802,32161.69999999553,32497.89999999851,32874,37865.59999999404,39041.89999999851,39385.79999999702,39657.5,39969.19999999553,40401.89999999851,41169.79999999702,41545.39999999851,41945.89999999851,42242.39999999851,42753.39999999851,43137.59999999404,43481.79999999702,43825.79999999702,44121.79999999702,44530,44969.89999999851,45457.79999999702,46201.59999999404,46490.19999999553,46801.69999999553,47113.29999999702,48434],"honeypot":0,"survey":"mace","page":10,"trial_type":"survey-mace","trial_index":18,"time_elapsed":860406,"internal_node_id":"0.0-18.0","task_version":"prescreen-v0.3","browser_interactions":0,"instructed":0},{"rt":4088.60000000149,"trial_type":"mental-health-alert","trial_index":19,"time_elapsed":864496,"internal_node_id":"0.0-19.0","task_version":"prescreen-v0.3","interactions":"[{\"event\":\"blur\",\"trial\":2,\"time\":77484},{\"event\":\"focus\",\"trial\":2,\"time\":113425},{\"event\":\"blur\",\"trial\":7,\"time\":377704},{\"event\":\"focus\",\"trial\":7,\"time\":408006},{\"event\":\"blur\",\"trial\":9,\"time\":503556},{\"event\":\"focus\",\"trial\":9,\"time\":514166}]"}]