[{"view_history":[{"page_index":0,"viewing_time":2438},{"page_index":1,"viewing_time":2153},{"page_index":2,"viewing_time":4742},{"page_index":3,"viewing_time":1313}],"rt":10647,"trial_type":"instructions","trial_index":0,"time_elapsed":10653,"internal_node_id":"0.0-0.0","task_version":"prescreen-v0.3"},{"rt":25898,"responses":{"age":"21","gender-categorical":"Female","gender-free-response":"","ethnicity":"Not Hispanic or Latino","race":["White"],"education":"High school"},"trial_type":"survey-demo","trial_index":1,"time_elapsed":36559,"internal_node_id":"0.0-1.0","task_version":"prescreen-v0.3"},{"responses":{"Q13":"2","Q19":"1","Q12":"1","Q09":"1","Q16":"1","Q17":"1","Q02":"2","Q04":"0","Q07":"1","Q06":"1","Q21":"3","Q10":"1","Q03":"0","Q15":"2","Q18":"1","Q08":"1","Q14":"1","Q20":"1","Q05":"1","Q01":"2","Q11":"1"},"rt":120712,"item_order":[12,18,11,8,15,16,1,3,6,5,20,9,2,14,17,7,13,19,4,0,10],"radio_events":[8520,14923.000000000007,20501,26631,29703,32017,38262,42318,51848,56831,57912.000000000015,65885,71600,75311.00000000001,77459,81434,84773,89847,93495,99541,102580,112122.00000000003,115666,119947],"key_events":[],"mouse_events":[8520,14923.000000000007,20501,26631,29703,32017,38262,42318,51848,56831,57912.000000000015,65885,71600,75311.00000000001,77459,81434,84773,89847,93495,99541,102580,110841,112122.00000000003,115666,118393,119947,120693],"straightlining":0.6666666666666666,"zigzagging":0.35,"honeypot":0,"survey":"sns","trial_type":"survey-template","trial_index":2,"time_elapsed":157278,"internal_node_id":"0.0-2.0","task_version":"prescreen-v0.3","browser_interactions":0,"infrequency":0},{"responses":{"Q11":"2","Q02":"3","Q10":"2","Q08":"3","Q12":"2","Q05":"3","Q13":"0","Q09":"2","Q01":"2","Q03":"3","Q06":"3","Q04":"3","Q07":"3"},"rt":61620.99999999997,"item_order":[10,1,9,7,11,4,12,8,0,2,5,3,6],"radio_events":[10033.99999999997,13365.99999999997,16153.99999999997,19185,31083.99999999997,34379.99999999997,37615.99999999997,44079.99999999997,46906.99999999997,50435,54330.99999999997,59272.99999999997,60901.99999999997],"key_events":[],"mouse_events":[10033.99999999997,13365.99999999997,16153.99999999997,19185,31083.99999999997,34379.99999999997,37615.99999999997,44079.99999999997,46906.99999999997,50435,54330.99999999997,59272.99999999997,60901.99999999997,61607.99999999997],"straightlining":0.5384615384615384,"zigzagging":0.5833333333333334,"honeypot":0,"survey":"bisbas","trial_type":"survey-template","trial_index":3,"time_elapsed":218904,"internal_node_id":"0.0-3.0","task_version":"prescreen-v0.3","browser_interactions":0,"infrequency":0},{"responses":{"Q01":"3","Q02":"2","Q03":"3"},"rt":26021,"radio_events":[15406.00000000003,19843,25094],"key_events":[],"mouse_events":[15406.00000000003,19843,25094,26015],"survey":"map","page":1,"trial_type":"survey-map","trial_index":4,"time_elapsed":244928,"internal_node_id":"0.0-4.0","task_version":"prescreen-v0.3","browser_interactions":0},{"responses":{"Q04":"2","Q05":"2","Q06":"3"},"rt":15974.00000000003,"radio_events":[5569,11558.00000000003,15062],"key_events":[],"mouse_events":[5569,11558.00000000003,15062,15968],"survey":"map","page":2,"trial_type":"survey-map","trial_index":5,"time_elapsed":260905,"internal_node_id":"0.0-5.0","task_version":"prescreen-v0.3","browser_interactions":0},{"responses":{"Q07":"3","Q08":"1","Q09":"4"},"rt":17332.99999999997,"radio_events":[5488.999999999971,10674.99999999997,12676.99999999997,16132.99999999997],"key_events":[],"mouse_events":[5488.999999999971,10674.99999999997,12676.99999999997,16132.99999999997,17327.99999999997],"survey":"map","page":3,"trial_type":"survey-map","trial_index":6,"time_elapsed":278241,"internal_node_id":"0.0-6.0","task_version":"prescreen-v0.3","browser_interactions":0},{"responses":{"Q10":"2","Q11":"3","Q12":"3","Q13":"3","Q16":"0","Q14":"2","Q15":"2"},"rt":40528,"radio_events":[5734,7919,12256,21693,26870.00000000006,33078,35558,36582,39690],"key_events":[],"mouse_events":[5734,7919,12256,21693,26870.00000000006,31885,33078,35558,36582,39690,40520],"survey":"map","page":4,"trial_type":"survey-map","trial_index":7,"time_elapsed":318773,"internal_node_id":"0.0-7.0","task_version":"prescreen-v0.3","browser_interactions":0,"infrequency":0},{"view_history":[{"page_index":0,"viewing_time":2606.999999999942},{"page_index":1,"viewing_time":3693}],"rt":6300.999999999942,"trial_type":"instructions","trial_index":8,"time_elapsed":325076,"internal_node_id":"0.0-8.0","task_version":"prescreen-v0.3"},{"responses":{"01":"No","02":"No","03":"No","04":"No","05":"No","06":"No"},"rt":23890,"item_order":[0,1,2,3,4,5],"radio_events":[9232,15529,17067.00000000006,19198,20503,23070],"checkbox_events":[],"key_events":[],"mouse_events":[0,9232,15529,17067.00000000006,19198,20503,23070,23879],"honeypot":0,"survey":"mace","page":1,"trial_type":"survey-mace","trial_index":9,"time_elapsed":348975,"internal_node_id":"0.0-9.0","task_version":"prescreen-v0.3","browser_interactions":0},{"responses":{"01":"No","02":"No","03":"Yes","03_ages_3":"3","03_ages_4":"4","03_ages_5":"5","03_ages_6":"6","03_ages_7":"7","04":"No","05":"No","06":"No","07":"No","08":"No"},"rt":31063.00000000006,"item_order":[0,1,2,3,4,5,6,7],"radio_events":[2549,5033,7279,21223,23413,25920,28142,29816],"checkbox_events":[12646,13309,14030,14651,19500],"key_events":[],"mouse_events":[2549,5033,7279,12646,13309,14030,14651,19500,21223,23413,25920,28142,29816,31050],"honeypot":0,"survey":"mace","page":2,"trial_type":"survey-mace","trial_index":10,"time_elapsed":380044,"internal_node_id":"0.0-10.0","task_version":"prescreen-v0.3","browser_interactions":0},{"responses":{"01":"No","02":"No","03":"No","04":"No"},"rt":12049,"item_order":[0,1,2,3],"radio_events":[3799,7407.000000000058,9986,11215],"checkbox_events":[],"key_events":[],"mouse_events":[3799,7407.000000000058,9986,11215,12040],"honeypot":0,"survey":"mace","page":3,"trial_type":"survey-mace","trial_index":11,"time_elapsed":392097,"internal_node_id":"0.0-11.0","task_version":"prescreen-v0.3","browser_interactions":0},{"responses":{"01":"No","02":"No"},"rt":8595,"item_order":[0,1],"radio_events":[5958,7725.000000000058],"checkbox_events":[],"key_events":[],"mouse_events":[5958,7725.000000000058,8588.000000000058],"honeypot":0,"survey":"mace","page":4,"trial_type":"survey-mace","trial_index":12,"time_elapsed":400695,"internal_node_id":"0.0-12.0","task_version":"prescreen-v0.3","browser_interactions":0},{"responses":{"01":"No","02":"No","03":"No","04":"No","05":"No"},"rt":18394.99999999994,"item_order":[0,1,2,3,4],"radio_events":[7807.999999999942,10154.999999999942,12848.999999999942,15563.999999999942,17553.99999999994],"checkbox_events":[],"key_events":[],"mouse_events":[7807.999999999942,10154.999999999942,12848.999999999942,15563.999999999942,17553.99999999994,18387],"honeypot":0,"survey":"mace","page":5,"trial_type":"survey-mace","trial_index":13,"time_elapsed":419095,"internal_node_id":"0.0-13.0","task_version":"prescreen-v0.3","browser_interactions":0},{"responses":{"01":"No","02":"Yes","02_ages_6":"6","02_ages_7":"7","02_ages_8":"8","02_ages_9":"9","02_ages_10":"10","02_ages_11":"11","02_ages_12":"12","02_ages_13":"13","02_ages_14":"14","03":"No","04":"Yes","04_ages_10":"10","04_ages_11":"11","04_ages_12":"12","04_ages_13":"13","04_ages_14":"14","04_ages_15":"15","04_ages_16":"16","04_ages_17":"17","04_ages_18":"18","05":"Yes","05_ages_18":"18"},"rt":63456,"item_order":[0,1,2,3,4],"radio_events":[7706,9748.000000000058,18998.00000000006,19879,35975,43231],"checkbox_events":[24127,25689,26409,27126,27807,28463,29048,29576,30129,37544,48845,49486.00000000006,50143,51505,52640.00000000006,53311,53903,54567,55160],"key_events":[],"mouse_events":[7706,9748.000000000058,18998.00000000006,19879,24127,24799,25689,26409,27126,27807,28463,29048,29576,30129,35975,37544,43231,48845,49486.00000000006,50143,50855,51505,52185,52640.00000000006,53311,53903,54567,55160,63442],"honeypot":0,"survey":"mace","page":6,"trial_type":"survey-mace","trial_index":14,"time_elapsed":482558,"internal_node_id":"0.0-14.0","task_version":"prescreen-v0.3","browser_interactions":0},{"responses":{"01":"No","02":"No","03":"No","04":"No","05":"No","06":"No","07":"No"},"rt":19391,"item_order":[0,1,2,3,4,5,6],"radio_events":[5775.000000000058,8907,11000,12778,16746,17844,18524],"checkbox_events":[],"key_events":[],"mouse_events":[5775.000000000058,8907,11000,12778,16746,17844,18524,19382],"honeypot":0,"survey":"mace","page":7,"trial_type":"survey-mace","trial_index":15,"time_elapsed":501955,"internal_node_id":"0.0-15.0","task_version":"prescreen-v0.3","browser_interactions":0},{"responses":{"01":"No","02":"No","03":"No","04":"No"},"rt":19391,"item_order":[0,1,2,3],"radio_events":[8578,11856.000000000058,16154.000000000058,18656],"checkbox_events":[],"key_events":[],"mouse_events":[8578,11856.000000000058,16154.000000000058,18656,19384.00000000006],"honeypot":0,"survey":"mace","page":8,"trial_type":"survey-mace","trial_index":16,"time_elapsed":521352,"internal_node_id":"0.0-16.0","task_version":"prescreen-v0.3","browser_interactions":0},{"responses":{"01":"Yes","01_ages_1":"1","01_ages_2":"2","01_ages_3":"3","01_ages_4":"4","01_ages_5":"5","01_ages_6":"6","01_ages_7":"7","01_ages_8":"8","01_ages_9":"9","01_ages_10":"10","01_ages_11":"11","01_ages_12":"12","01_ages_13":"13","01_ages_14":"14","01_ages_15":"15","01_ages_16":"16","01_ages_17":"17","01_ages_18":"18","02":"Yes","02_ages_1":"1","02_ages_2":"2","02_ages_3":"3","02_ages_4":"4","02_ages_5":"5","02_ages_6":"6","02_ages_7":"7","02_ages_8":"8","02_ages_9":"9","02_ages_10":"10","02_ages_11":"11","02_ages_12":"12","02_ages_13":"13","02_ages_14":"14","02_ages_15":"15","02_ages_16":"16","02_ages_17":"17","02_ages_18":"18","03":"Yes","03_ages_1":"1","03_ages_2":"2","03_ages_3":"3","03_ages_4":"4","03_ages_5":"5","03_ages_6":"6","03_ages_7":"7","03_ages_8":"8","03_ages_9":"9","03_ages_10":"10","03_ages_11":"11","03_ages_12":"12","03_ages_13":"13","03_ages_14":"14","03_ages_15":"15","03_ages_16":"16","03_ages_17":"17","03_ages_18":"18","04":"Yes","04_ages_1":"1","04_ages_2":"2","04_ages_3":"3","04_ages_4":"4","04_ages_5":"5","04_ages_6":"6","04_ages_7":"7","04_ages_8":"8","04_ages_9":"9","04_ages_10":"10","04_ages_11":"11","04_ages_12":"12","04_ages_13":"13","04_ages_14":"14","04_ages_15":"15","04_ages_16":"16","04_ages_17":"17","04_ages_18":"18"},"rt":68195,"item_order":[0,1,2,3],"radio_events":[7390,21576,36519,55686],"checkbox_events":[9376,9920,10485,11037,11574,12110,12647,13207,13952,14505,15189,15726,16255,16847,17288,17856,18361,19105,22392.000000000116,23066,23630,24286.000000000116,24807,25392.000000000116,25808,26312,27334.000000000116,28102,29054,29977,30625,31177,31758,32327,32871,33959.00000000012,38144,38713,39570,40162,40887.00000000012,42233,42754,43474,44067,44764,45573,46281,47075,47651,48235,48820,50057,50582,57825,58554,59040,59647,60190.00000000012,60728,61264,61713,62201,62794,63186,63719.00000000012,64111,64672,65128,66081,66706,67475],"key_events":[],"mouse_events":[7390,9376,9920,10485,11037,11574,12110,12647,13207,13952,14505,15189,15726,16255,16847,17288,17856,18361,19105,21576,22392.000000000116,23066,23630,24286.000000000116,24807,25392.000000000116,25808,26312,26809,27334.000000000116,28102,29054,29544,29977,30625,31177,31758,32327,32871,33959.00000000012,36519,38144,38713,39570,40162,40887.00000000012,42233,42754,43474,44067,44764,45573,46281,47075,47651,48235,48820,49404,50057,50582,55686,57825,58554,59040,59647,60190.00000000012,60728,61264,61713,62201,62794,63186,63719.00000000012,64111,64672,65128,66081,66706,67475,68184],"honeypot":0,"survey":"mace","page":9,"trial_type":"survey-mace","trial_index":17,"time_elapsed":589553,"internal_node_id":"0.0-17.0","task_version":"prescreen-v0.3","browser_interactions":0},{"responses":{"01":"No","02":"No","03":"No","04":"Yes","04_ages_12":"12","04_ages_13":"13","04_ages_14":"14","04_ages_15":"15","04_ages_16":"16","04_ages_17":"17","04_ages_18":"18","05":"No","06":"Yes","06_ages_17":"17","07":"Yes","07_ages_1":"1","07_ages_2":"2","07_ages_3":"3","07_ages_4":"4","07_ages_5":"5","07_ages_6":"6","07_ages_7":"7","07_ages_8":"8","07_ages_9":"9","07_ages_10":"10","07_ages_11":"11","07_ages_12":"12","07_ages_13":"13","07_ages_14":"14","07_ages_15":"15","07_ages_16":"16","07_ages_17":"17","07_ages_18":"18","08":"Yes","08_ages_1":"1","08_ages_2":"2","08_ages_3":"3","08_ages_4":"4","08_ages_5":"5","08_ages_6":"6","08_ages_7":"7","08_ages_8":"8","08_ages_9":"9","08_ages_10":"10","08_ages_11":"11","08_ages_12":"12","08_ages_13":"13","08_ages_14":"14","08_ages_15":"15","08_ages_16":"16","08_ages_17":"17","08_ages_18":"18"},"rt":60295,"item_order":[0,1,2,3,4,5,6,7],"radio_events":[4041,4960.000000000116,6914,10746,22591,26046,32910,46920],"checkbox_events":[15010,15555,16108,16637,17213,17758.000000000116,18526,29518.000000000116,34583,35224,35749,36422,37086,37815,38504,39080,39753,40325,41014,41631,42192,42720,43256,43785,44370,44910,49143.00000000012,49800,50352,50953,51473,52715.00000000012,53340.00000000012,53888.00000000012,54368,54873,55602,56298,56819,57596,58089,58633.00000000012,59193,59698],"key_events":[],"mouse_events":[4041,4960.000000000116,6914,10746,15010,15555,16108,16637,17213,17758.000000000116,18526,22591,26046,29518.000000000116,32910,34583,35224,35749,36422,37086,37815,38504,39080,39753,40325,41014,41631,42192,42720,43256,43785,44370,44910,46920,47770,49143.00000000012,49800,50352,50953,51473,52162.00000000012,52715.00000000012,53340.00000000012,53888.00000000012,54368,54873,55602,56298,56819,57596,58089,58633.00000000012,59193,59698,60284],"honeypot":0,"survey":"mace","page":10,"trial_type":"survey-mace","trial_index":18,"time_elapsed":649855,"internal_node_id":"0.0-18.0","task_version":"prescreen-v0.3","browser_interactions":0,"instructed":0},{"rt":6677,"trial_type":"mental-health-alert","trial_index":19,"time_elapsed":656535,"internal_node_id":"0.0-19.0","task_version":"prescreen-v0.3","interactions":"[]"}]