[{"view_history":[{"page_index":0,"viewing_time":3593.599999964237},{"page_index":1,"viewing_time":2544.600000023842},{"page_index":2,"viewing_time":3187.600000023842},{"page_index":3,"viewing_time":1108.7999999523163}],"rt":10436.399999976158,"trial_type":"instructions","trial_index":0,"time_elapsed":10447,"internal_node_id":"0.0-0.0","task_version":"prescreen-v0.3"},{"rt":12042.800000011921,"responses":{"age":"22","gender-categorical":"Female","gender-free-response":"","ethnicity":"Not Hispanic or Latino","race":["White"],"education":"Bachelor degree"},"trial_type":"survey-demo","trial_index":1,"time_elapsed":22499,"internal_node_id":"0.0-1.0","task_version":"prescreen-v0.3"},{"responses":{"Q16":"3","Q15":"3","Q18":"1","Q21":"3","Q06":"1","Q04":"3","Q13":"2","Q19":"2","Q17":"1","Q08":"1","Q02":"2","Q20":"0","Q12":"2","Q03":"2","Q01":"3","Q11":"0","Q14":"3","Q10":"0","Q09":"0","Q07":"0","Q05":"0"},"rt":94907.20000004768,"item_order":[15,14,17,20,5,3,12,18,16,7,1,19,11,2,0,10,13,9,8,6,4],"radio_events":[4606,8949.700000047684,12439.700000047684,17568.900000035763,22980.5,27608.200000047684,35305.90000003576,38205.60000002384,43891.60000002384,46887.10000002384,51515.60000002384,54650.30000001192,56321.80000001192,61837.30000001192,65666.10000002384,72524.5,75941.40000003576,76789.20000004768,81062.20000004768,84835.30000001192,90156,93403.80000001192],"key_events":[],"mouse_events":[4606,8949.700000047684,12439.700000047684,17568.900000035763,20767.400000035763,22391,22980.5,27608.200000047684,35305.90000003576,37156.200000047684,38205.60000002384,43891.60000002384,46450.60000002384,46887.10000002384,51515.60000002384,54650.30000001192,56321.80000001192,61377,61837.30000001192,65666.10000002384,68275.10000002384,71547,72524.5,75941.40000003576,76789.20000004768,81062.20000004768,83898.10000002384,84835.30000001192,90156,93403.80000001192,94899.90000003576],"straightlining":0.2857142857142857,"zigzagging":0.35,"honeypot":0,"survey":"sns","trial_type":"survey-template","trial_index":2,"time_elapsed":117421,"internal_node_id":"0.0-2.0","task_version":"prescreen-v0.3","browser_interactions":0,"infrequency":0},{"responses":{"Q11":"2","Q04":"3","Q07":"2","Q06":"2","Q05":"2","Q02":"1","Q12":"1","Q08":"2","Q13":"0","Q03":"1","Q09":"2","Q10":"2","Q01":"2"},"rt":56747.19999998808,"item_order":[10,3,6,5,4,1,11,7,12,2,8,9,0],"radio_events":[9689.300000011921,13469.399999976158,15343.600000023842,17120.80000001192,21757.69999998808,24181.30000001192,26661.399999976158,31850.30000001192,35630.19999998808,38142.89999997616,43660.80000001192,46101,50197.19999998808,55691],"key_events":[],"mouse_events":[9689.300000011921,13469.399999976158,14722.199999988079,15343.600000023842,17120.80000001192,20457,20797.100000023842,21273.30000001192,21757.69999998808,24181.30000001192,26298.100000023842,26661.399999976158,31850.30000001192,35630.19999998808,38142.89999997616,43660.80000001192,46101,49760.39999997616,50197.19999998808,54754.39999997616,55263.30000001192,55691,56742],"straightlining":0.6153846153846154,"zigzagging":0.5,"honeypot":0,"survey":"bisbas","trial_type":"survey-template","trial_index":3,"time_elapsed":174179,"internal_node_id":"0.0-3.0","task_version":"prescreen-v0.3","browser_interactions":0,"infrequency":0},{"responses":{"Q01":"3","Q02":"2","Q03":"2"},"rt":15290.800000011921,"radio_events":[10603.700000047684,11928.300000011921,14682.900000035763],"key_events":[],"mouse_events":[10603.700000047684,11928.300000011921,14682.900000035763,15288.600000023842],"survey":"map","page":1,"trial_type":"survey-map","trial_index":4,"time_elapsed":189480,"internal_node_id":"0.0-4.0","task_version":"prescreen-v0.3","browser_interactions":0},{"responses":{"Q04":"2","Q05":"3","Q06":"2"},"rt":18959.19999998808,"radio_events":[4851,12316,15006.099999964237,17914.899999976158],"key_events":[],"mouse_events":[4520.299999952316,4851,12316,15006.099999964237,17914.899999976158,18957.19999998808],"survey":"map","page":2,"trial_type":"survey-map","trial_index":5,"time_elapsed":208449,"internal_node_id":"0.0-5.0","task_version":"prescreen-v0.3","browser_interactions":0},{"responses":{"Q07":"2","Q08":"1","Q09":"2"},"rt":14637.599999964237,"radio_events":[6047.099999964237,10361.099999964237,13972.699999988079],"key_events":[],"mouse_events":[6047.099999964237,10361.099999964237,13342.299999952316,13972.699999988079,14635.399999976158],"survey":"map","page":3,"trial_type":"survey-map","trial_index":6,"time_elapsed":223096,"internal_node_id":"0.0-6.0","task_version":"prescreen-v0.3","browser_interactions":0},{"responses":{"Q10":"0","Q11":"3","Q12":"0","Q13":"1","Q16":"0","Q14":"1","Q15":"2"},"rt":42629.30000001192,"radio_events":[8975.5,12698.800000011921,15575,15898.199999988079,22487.80000001192,25848.400000035763,38173.69999998808,41728],"key_events":[],"mouse_events":[8563,8975.5,12698.800000011921,15575,15898.199999988079,22487.80000001192,25848.400000035763,38173.69999998808,41728,42625.40000003576],"survey":"map","page":4,"trial_type":"survey-map","trial_index":7,"time_elapsed":265736,"internal_node_id":"0.0-7.0","task_version":"prescreen-v0.3","browser_interactions":0,"infrequency":0},{"view_history":[{"page_index":0,"viewing_time":2079.300000011921},{"page_index":1,"viewing_time":2778.599999964237}],"rt":4859.300000011921,"trial_type":"instructions","trial_index":8,"time_elapsed":270602,"internal_node_id":"0.0-8.0","task_version":"prescreen-v0.3"},{"responses":{"01":"No","02":"Yes","02_ages_8":"8","02_ages_9":"9","02_ages_10":"10","02_ages_11":"11","02_ages_12":"12","02_ages_13":"13","02_ages_14":"14","02_ages_15":"15","02_ages_16":"16","03":"No","04":"No","05":"No","06":"Yes","06_ages_10":"10","06_ages_11":"11"},"rt":40168.5,"item_order":[0,1,2,3,4,5],"radio_events":[11022.800000011921,12242.100000023842,30478.100000023842,32441.100000023842,33288.80000001192,37635.90000003576],"checkbox_events":[21293,21769.400000035763,22278.5,23005.600000023842,23497.80000001192,24273.30000001192,25655.100000023842,27763.30000001192,28417.600000023842,38549.5,38961.19999998808],"key_events":[],"mouse_events":[0.10000002384185791,11022.800000011921,12242.100000023842,21293,21769.400000035763,22278.5,23005.600000023842,23497.80000001192,24273.30000001192,25655.100000023842,27763.30000001192,28417.600000023842,30478.100000023842,32441.100000023842,33288.80000001192,37635.90000003576,38549.5,38961.19999998808,40157.80000001192],"honeypot":0,"survey":"mace","page":1,"trial_type":"survey-mace","trial_index":9,"time_elapsed":310782,"internal_node_id":"0.0-9.0","task_version":"prescreen-v0.3","browser_interactions":0},{"responses":{"01":"No","02":"No","03":"No","04":"No","05":"No","06":"No","07":"No","08":"No"},"rt":17577.099999964237,"item_order":[0,1,2,3,4,5,6,7],"radio_events":[2619.399999976158,6722.799999952316,8035.199999988079,9978.5,12167.799999952316,13670.199999988079,15278,16619.299999952316],"checkbox_events":[],"key_events":[],"mouse_events":[2619.399999976158,6722.799999952316,8035.199999988079,9978.5,12167.799999952316,13670.199999988079,15278,16619.299999952316,17563.899999976158],"honeypot":0,"survey":"mace","page":2,"trial_type":"survey-mace","trial_index":10,"time_elapsed":328369,"internal_node_id":"0.0-10.0","task_version":"prescreen-v0.3","browser_interactions":0},{"responses":{"01":"No","02":"No","03":"No","04":"No"},"rt":15705.300000011921,"item_order":[0,1,2,3],"radio_events":[3620.600000023842,9081,10421.699999988079,11569.100000023842],"checkbox_events":[],"key_events":[],"mouse_events":[3620.600000023842,9081,9840,10421.699999988079,11132.400000035763,11569.100000023842,15697.199999988079],"honeypot":0,"survey":"mace","page":3,"trial_type":"survey-mace","trial_index":11,"time_elapsed":344083,"internal_node_id":"0.0-11.0","task_version":"prescreen-v0.3","browser_interactions":0},{"responses":{"01":"Yes","01_ages_13":"13","01_ages_14":"14","01_ages_15":"15","01_ages_16":"16","01_ages_17":"17","02":"No"},"rt":24901.600000023842,"item_order":[0,1],"radio_events":[4644,20825.30000001192],"checkbox_events":[7164.400000035763,8894,9661,10129.800000011921,10573.800000011921],"key_events":[],"mouse_events":[4644,7164.400000035763,8894,9661,10129.800000011921,10573.800000011921,20825.30000001192,24897.19999998808],"honeypot":0,"survey":"mace","page":4,"trial_type":"survey-mace","trial_index":12,"time_elapsed":368993,"internal_node_id":"0.0-12.0","task_version":"prescreen-v0.3","browser_interactions":0},{"responses":{"01":"No","02":"No","03":"No","04":"No","05":"No"},"rt":17780.5,"item_order":[0,1,2,3,4],"radio_events":[6598.5,12261.200000047684,14361.300000011921,15275.300000011921,16534.400000035763],"checkbox_events":[],"key_events":[],"mouse_events":[6598.5,12261.200000047684,13489.400000035763,14361.300000011921,15275.300000011921,16534.400000035763,17771.700000047684],"honeypot":0,"survey":"mace","page":5,"trial_type":"survey-mace","trial_index":13,"time_elapsed":386784,"internal_node_id":"0.0-13.0","task_version":"prescreen-v0.3","browser_interactions":0},{"responses":{"01":"Yes","01_ages_8":"8","01_ages_9":"9","01_ages_10":"10","01_ages_11":"11","01_ages_12":"12","01_ages_13":"13","02":"Yes","02_ages_6":"6","02_ages_7":"7","02_ages_8":"8","02_ages_9":"9","02_ages_10":"10","02_ages_11":"11","02_ages_12":"12","02_ages_13":"13","02_ages_14":"14","02_ages_15":"15","02_ages_16":"16","02_ages_17":"17","02_ages_18":"18","03":"Yes","03_ages_14":"14","03_ages_15":"15","03_ages_16":"16","03_ages_17":"17","03_ages_18":"18","04":"Yes","04_ages_7":"7","04_ages_8":"8","04_ages_9":"9","04_ages_10":"10","04_ages_11":"11","04_ages_12":"12","04_ages_13":"13","04_ages_14":"14","04_ages_15":"15","04_ages_16":"16","04_ages_17":"17","04_ages_18":"18","05":"Yes","05_ages_13":"13","05_ages_14":"14","05_ages_15":"15","05_ages_16":"16"},"rt":71697.69999998808,"item_order":[0,1,2,3,4],"radio_events":[3349.899999976158,23552.599999964237,42043.89999997616,49976.69999998808,61464.09999996424],"checkbox_events":[8729.599999964237,10458.699999988079,14077.599999964237,14666.599999964237,15507.099999964237,17397.899999976158,18431.399999976158,18803.099999964237,19214.599999964237,21008.099999964237,24578.599999964237,25039.099999964237,25475.30000001192,26614.099999964237,27430.099999964237,27866.099999964237,28286.30000001192,28754.899999976158,30087.599999964237,31598.399999976158,32479.30000001192,34207.80000001192,36809.09999996424,37309.69999998808,38545.69999998808,44240.69999998808,45791.30000001192,46615.59999996424,47157.19999998808,47714.5,53013.39999997616,53579.09999996424,54128.19999998808,54580.59999996424,55098.09999996424,55566,56073.59999996424,56560,57093.09999996424,57667.09999996424,58159.09999996424,58716.59999996424,66229.19999998808,66705.69999998808,67360,68038.39999997616],"key_events":[],"mouse_events":[3349.899999976158,8729.599999964237,10458.699999988079,14077.599999964237,14666.599999964237,15119.399999976158,15507.099999964237,16040.399999976158,16735.19999998808,17397.899999976158,18075.80000001192,18431.399999976158,18803.099999964237,19214.599999964237,21008.099999964237,23552.599999964237,24578.599999964237,25039.099999964237,25475.30000001192,25960,26614.099999964237,26985.80000001192,27430.099999964237,27866.099999964237,28286.30000001192,28754.899999976158,30087.599999964237,31598.399999976158,32058.5,32479.30000001192,33722.80000001192,34207.80000001192,36809.09999996424,37309.69999998808,38545.69999998808,42043.89999997616,44240.69999998808,44701.09999996424,45280.80000001192,45791.30000001192,46615.59999996424,47157.19999998808,47714.5,49976.69999998808,53013.39999997616,53579.09999996424,54128.19999998808,54580.59999996424,55098.09999996424,55566,56073.59999996424,56560,57093.09999996424,57667.09999996424,58159.09999996424,58716.59999996424,61464.09999996424,66229.19999998808,66705.69999998808,67360,68038.39999997616,71688.5],"honeypot":0,"survey":"mace","page":6,"trial_type":"survey-mace","trial_index":14,"time_elapsed":458492,"internal_node_id":"0.0-14.0","task_version":"prescreen-v0.3","browser_interactions":0},{"responses":{"01":"No","02":"Yes","02_ages_12":"12","02_ages_13":"13","02_ages_14":"14","02_ages_15":"15","02_ages_16":"16","02_ages_17":"17","03":"Yes","03_ages_14":"14","03_ages_15":"15","03_ages_16":"16","04":"Yes","04_ages_13":"13","04_ages_14":"14","04_ages_15":"15","04_ages_16":"16","05":"No","06":"No","07":"No"},"rt":32362.100000023842,"item_order":[0,1,2,3,4,5,6],"radio_events":[4529.699999988079,5337.199999988079,13641.899999976158,18221.5,24425.600000023842,29070.100000023842,30520.600000023842],"checkbox_events":[8052,8471.899999976158,9287.300000011921,9901.699999988079,10322,11045.699999988079,14982.800000011921,15483.600000023842,15935.800000011921,19352.5,19796.899999976158,20224.5,20717.600000023842],"key_events":[],"mouse_events":[4529.699999988079,5337.199999988079,8052,8471.899999976158,8900.100000023842,9287.300000011921,9901.699999988079,10322,11045.699999988079,13641.899999976158,14982.800000011921,15483.600000023842,15935.800000011921,18221.5,19352.5,19796.899999976158,20224.5,20717.600000023842,24425.600000023842,29070.100000023842,30520.600000023842,32350.30000001192],"honeypot":0,"survey":"mace","page":7,"trial_type":"survey-mace","trial_index":15,"time_elapsed":490865,"internal_node_id":"0.0-15.0","task_version":"prescreen-v0.3","browser_interactions":0},{"responses":{"01":"No","02":"Yes","02_ages_1":"1","02_ages_2":"2","02_ages_3":"3","02_ages_4":"4","02_ages_5":"5","02_ages_6":"6","02_ages_7":"7","02_ages_8":"8","02_ages_9":"9","02_ages_10":"10","02_ages_11":"11","02_ages_12":"12","02_ages_13":"13","02_ages_14":"14","02_ages_15":"15","02_ages_16":"16","02_ages_17":"17","02_ages_18":"18","03":"Yes","03_ages_1":"1","03_ages_2":"2","03_ages_3":"3","03_ages_4":"4","03_ages_5":"5","03_ages_6":"6","03_ages_7":"7","03_ages_8":"8","03_ages_9":"9","03_ages_10":"10","03_ages_11":"11","03_ages_12":"12","03_ages_13":"13","03_ages_14":"14","03_ages_15":"15","03_ages_16":"16","03_ages_17":"17","03_ages_18":"18","04":"No"},"rt":50275.5,"item_order":[0,1,2,3],"radio_events":[8005.799999952316,15242.099999964237,31371.099999964237,49759.89999997616],"checkbox_events":[16864.899999976158,17624.799999952316,18028.399999976158,18521.5,19304.69999998808,20193.19999998808,20697.5,21154.299999952316,21696,22204.69999998808,22793.799999952316,23230,24611.599999964237,24975,25395.299999952316,25960.399999976158,26396.5,26889.19999998808,34220,35315,35799.5,36365.09999996424,37237.59999996424,39765.89999997616,40218.09999996424,41227.799999952316,42072,42795.19999998808,43272,43700.69999998808,44668.89999997616,45412.19999998808,46010.299999952316,46793.59999996424,47819.299999952316,48247.799999952316],"key_events":[],"mouse_events":[8005.799999952316,15242.099999964237,16864.899999976158,17624.799999952316,18028.399999976158,18521.5,18900.69999998808,19304.69999998808,19716.599999964237,20193.19999998808,20697.5,21154.299999952316,21696,22204.69999998808,22793.799999952316,23230,23666.399999976158,24175.599999964237,24611.599999964237,24975,25395.299999952316,25960.399999976158,26396.5,26889.19999998808,31371.099999964237,34220,34709.09999996424,35315,35799.5,36365.09999996424,36776.39999997616,37237.59999996424,37689.299999952316,39143.89999997616,39765.89999997616,40218.09999996424,40832.09999996424,41227.799999952316,41712.89999997616,42072,42415,42795.19999998808,43272,43700.69999998808,44329.89999997616,44668.89999997616,45412.19999998808,46010.299999952316,46462.09999996424,46793.59999996424,47213.59999996424,47819.299999952316,48247.799999952316,49087.69999998808,49459.59999996424,49759.89999997616,50267.5],"honeypot":0,"survey":"mace","page":8,"trial_type":"survey-mace","trial_index":16,"time_elapsed":541150,"internal_node_id":"0.0-16.0","task_version":"prescreen-v0.3","browser_interactions":0},{"responses":{"01":"Yes","01_ages_1":"1","01_ages_2":"2","01_ages_3":"3","01_ages_4":"4","01_ages_5":"5","01_ages_6":"6","01_ages_7":"7","01_ages_8":"8","01_ages_9":"9","01_ages_10":"10","01_ages_11":"11","01_ages_12":"12","01_ages_13":"13","01_ages_14":"14","01_ages_15":"15","01_ages_16":"16","01_ages_17":"17","01_ages_18":"18","02":"Yes","02_ages_1":"1","02_ages_2":"2","02_ages_3":"3","02_ages_4":"4","02_ages_5":"5","02_ages_6":"6","02_ages_7":"7","02_ages_8":"8","02_ages_9":"9","02_ages_10":"10","02_ages_11":"11","02_ages_12":"12","02_ages_13":"13","02_ages_14":"14","02_ages_15":"15","02_ages_16":"16","02_ages_17":"17","02_ages_18":"18","03":"Yes","03_ages_1":"1","03_ages_2":"2","03_ages_3":"3","03_ages_4":"4","03_ages_5":"5","03_ages_6":"6","03_ages_7":"7","03_ages_8":"8","03_ages_9":"9","03_ages_10":"10","03_ages_11":"11","03_ages_12":"12","03_ages_13":"13","03_ages_14":"14","03_ages_15":"15","03_ages_16":"16","03_ages_17":"17","03_ages_18":"18","04":"Yes","04_ages_1":"1","04_ages_2":"2","04_ages_3":"3","04_ages_4":"4","04_ages_5":"5","04_ages_6":"6","04_ages_7":"7","04_ages_8":"8","04_ages_9":"9","04_ages_10":"10","04_ages_11":"11","04_ages_12":"12","04_ages_13":"13","04_ages_14":"14","04_ages_15":"15","04_ages_16":"16","04_ages_17":"17","04_ages_18":"18"},"rt":62310.69999998808,"item_order":[0,1,2,3],"radio_events":[3673.199999988079,19021.5,22301.400000035763,24717],"checkbox_events":[5652.199999988079,6057.900000035763,7220.600000023842,7592.5,8004.300000011921,8477.300000011921,8917.600000023842,10704.800000011921,11203.5,11712.199999988079,12188.600000023842,13125.800000011921,13562.600000023842,14078.5,14580.400000035763,15048.699999988079,15797.5,16163.5,25776.30000001192,26606.600000023842,27271.100000023842,27740.69999998808,28424.900000035763,29297.69999998808,29758.30000001192,30209.69999998808,30962.100000023842,31390.19999998808,31858.19999998808,32439.5,33327.40000003576,34216.60000002384,34580.19999998808,34984.10000002384,35856.19999998808,36195.60000002384,37334.40000003576,37730.60000002384,38496.5,40339.5,40726.5,41074.30000001192,43069.69999998808,43441.30000001192,43918,44346.10000002384,45864.30000001192,46705.10000002384,47149.30000001192,47722.19999998808,48182.90000003576,48974.10000002384,49348.30000001192,50274.5,51147.10000002384,51656,52149.30000001192,52601.40000003576,53021.5,53910.30000001192,54684,55751,56607.60000002384,57092.19999998808,57553.10000002384,58094.40000003576,58610.10000002384,59313.5,59798.80000001192,60210.19999998808,61155.80000001192,61551.40000003576],"key_events":[],"mouse_events":[3212.699999988079,3673.199999988079,5652.199999988079,6057.900000035763,6702.600000023842,7220.600000023842,7592.5,8004.300000011921,8477.300000011921,8917.600000023842,9465.800000011921,10704.800000011921,11203.5,11712.199999988079,12188.600000023842,12762.300000011921,13125.800000011921,13562.600000023842,14078.5,14580.400000035763,15048.699999988079,15420,15797.5,16163.5,19021.5,21615.80000001192,22301.400000035763,24304.69999998808,24717,25776.30000001192,26236.100000023842,26606.600000023842,27271.100000023842,27740.69999998808,28424.900000035763,28910.600000023842,29297.69999998808,29758.30000001192,30209.69999998808,30962.100000023842,31390.19999998808,31858.19999998808,32439.5,33005.10000002384,33327.40000003576,33778.69999998808,34216.60000002384,34580.19999998808,34984.10000002384,35410.90000003576,35856.19999998808,36195.60000002384,37334.40000003576,37730.60000002384,38183.19999998808,38496.5,39895.5,40339.5,40726.5,41074.30000001192,41582.90000003576,41962.80000001192,42400.10000002384,42738.69999998808,43069.69999998808,43441.30000001192,43918,44346.10000002384,45864.30000001192,46705.10000002384,47149.30000001192,47722.19999998808,48182.90000003576,48578.40000003576,48974.10000002384,49348.30000001192,49781.69999998808,50274.5,51147.10000002384,51656,52149.30000001192,52601.40000003576,53021.5,53910.30000001192,54338.10000002384,54684,55509.30000001192,55751,56163.5,56607.60000002384,57092.19999998808,57553.10000002384,58094.40000003576,58610.10000002384,59313.5,59798.80000001192,60210.19999998808,60768.30000001192,61155.80000001192,61551.40000003576,62302.30000001192],"honeypot":0,"survey":"mace","page":9,"trial_type":"survey-mace","trial_index":17,"time_elapsed":603470,"internal_node_id":"0.0-17.0","task_version":"prescreen-v0.3","browser_interactions":0},{"responses":{"01":"No","02":"No","03":"Yes","03_ages_13":"13","03_ages_14":"14","03_ages_15":"15","03_ages_16":"16","03_ages_17":"17","03_ages_18":"18","04":"No","05":"Yes","05_ages_4":"4","05_ages_5":"5","05_ages_6":"6","05_ages_7":"7","05_ages_8":"8","05_ages_9":"9","05_ages_10":"10","05_ages_11":"11","05_ages_12":"12","05_ages_13":"13","05_ages_14":"14","05_ages_15":"15","05_ages_16":"16","06":"Yes","06_ages_17":"17","07":"Yes","07_ages_1":"1","07_ages_2":"2","07_ages_3":"3","07_ages_4":"4","07_ages_5":"5","07_ages_6":"6","07_ages_7":"7","07_ages_8":"8","07_ages_9":"9","07_ages_10":"10","07_ages_11":"11","07_ages_12":"12","07_ages_13":"13","07_ages_14":"14","07_ages_15":"15","07_ages_16":"16","07_ages_17":"17","07_ages_18":"18","08":"Yes","08_ages_1":"1","08_ages_2":"2","08_ages_3":"3","08_ages_4":"4","08_ages_5":"5","08_ages_6":"6","08_ages_7":"7","08_ages_8":"8","08_ages_9":"9","08_ages_10":"10","08_ages_11":"11","08_ages_12":"12","08_ages_13":"13","08_ages_14":"14","08_ages_15":"15","08_ages_16":"16","08_ages_17":"17","08_ages_18":"18"},"rt":74022.90000003576,"item_order":[0,1,2,3,4,5,6,7],"radio_events":[2743.800000011921,3955.5,5813.400000035763,14182,16693.80000001192,19650.400000035763,26516.100000023842,27122.100000023842],"checkbox_events":[9585.800000011921,10005.800000011921,10425.699999988079,11209,11814.900000035763,12186.300000011921,20716.5,39213.90000003576,39617.60000002384,40302,41410.60000002384,41825,42630.30000001192,42993.80000001192,43421.60000002384,43825.60000002384,44270,45141.90000003576,45486.5,45974.19999998808,50182.19999998808,50570.10000002384,51062.80000001192,51507.19999998808,52322.80000001192,53639.80000001192,54818.40000003576,55206.30000001192,55650.5,56167.69999998808,56716.69999998808,58073,58776.30000001192,59478.80000001192,60093,60504.80000001192,60941.10000002384,61539,62378.60000002384,63404.40000003576,63921.40000003576,64487.10000002384,65060.90000003576,65529.10000002384,66522.69999998808,67079.30000001192,67870.90000003576,68315.19999998808,68864.5,69340.90000003576,69777,70213.5,70633,71085.5,71901.19999998808,73137.19999998808],"key_events":[],"mouse_events":[2743.800000011921,3955.5,5813.400000035763,9585.800000011921,10005.800000011921,10425.699999988079,10845.699999988079,11209,11814.900000035763,12186.300000011921,14182,16693.80000001192,19650.400000035763,20716.5,26516.100000023842,27122.100000023842,39213.90000003576,39617.60000002384,40302,40707.69999998808,41410.60000002384,41825,42287.80000001192,42630.30000001192,42993.80000001192,43421.60000002384,43825.60000002384,44270,44698.30000001192,45141.90000003576,45486.5,45974.19999998808,50182.19999998808,50570.10000002384,51062.80000001192,51507.19999998808,52322.80000001192,53058,53639.80000001192,54463.40000003576,54818.40000003576,55206.30000001192,55650.5,56167.69999998808,56716.69999998808,58073,58776.30000001192,59478.80000001192,60093,60504.80000001192,60941.10000002384,61539,62378.60000002384,63404.40000003576,63921.40000003576,64487.10000002384,65060.90000003576,65529.10000002384,65980.90000003576,66522.69999998808,67079.30000001192,67870.90000003576,68315.19999998808,68864.5,69340.90000003576,69777,70213.5,70633,71085.5,71505.80000001192,71901.19999998808,72394,72797.80000001192,73137.19999998808,74009.60000002384],"honeypot":0,"survey":"mace","page":10,"trial_type":"survey-mace","trial_index":18,"time_elapsed":677505,"internal_node_id":"0.0-18.0","task_version":"prescreen-v0.3","browser_interactions":0,"instructed":0},{"rt":4818.299999952316,"trial_type":"mental-health-alert","trial_index":19,"time_elapsed":682330,"internal_node_id":"0.0-19.0","task_version":"prescreen-v0.3","interactions":"[]"}]