[{"view_history":[{"page_index":0,"viewing_time":5036.399999976158},{"page_index":1,"viewing_time":5377.700000047684},{"page_index":2,"viewing_time":8769.899999976158},{"page_index":3,"viewing_time":10870.700000047684}],"rt":30058.100000023842,"trial_type":"instructions","trial_index":0,"time_elapsed":30078,"internal_node_id":"0.0-0.0","task_version":"prescreen-v0.3"},{"rt":20122.200000047684,"responses":{"age":"42","gender-categorical":"Male","gender-free-response":"","ethnicity":"Not Hispanic or Latino","race":["White"],"education":"Master degree or higher","siblings":"5"},"trial_type":"survey-demo","trial_index":1,"time_elapsed":50223,"internal_node_id":"0.0-1.0","task_version":"prescreen-v0.3"},{"responses":{"Q15":"1","Q19":"1","Q02":"0","Q18":"0","Q16":"0","Q12":"0","Q20":"0","Q13":"1","Q21":"3","Q11":"1","Q03":"0","Q08":"0","Q04":"1","Q17":"0","Q06":"2","Q14":"0","Q07":"1","Q09":"0","Q10":"0","Q05":"0","Q01":"0"},"rt":113149.19999992847,"item_order":[14,18,1,17,15,11,19,12,20,10,2,7,3,16,5,13,6,8,9,4,0],"radio_events":[12406.199999928474,16225.100000023842,19795.5,23790,28638.799999952316,33067,35342.39999997616,44618.60000002384,49124.699999928474,54171,59099.10000002384,60331,68499.5,74131,83176.69999992847,89925.79999995232,92307.79999995232,96088.89999997616,98280.79999995232,109560,110927.79999995232],"key_events":[],"mouse_events":[12406.199999928474,16225.100000023842,19795.5,23790,28638.799999952316,33067,35342.39999997616,44618.60000002384,49124.699999928474,54171,56891.299999952316,59099.10000002384,60331,68499.5,72503.60000002384,74131,83176.69999992847,87122.29999995232,89925.79999995232,92307.79999995232,96088.89999997616,98280.79999995232,109560,110927.79999995232,113141],"straightlining":0.6190476190476191,"zigzagging":0.35,"honeypot":0,"survey":"sns","trial_type":"survey-template","trial_index":2,"time_elapsed":163394,"internal_node_id":"0.0-2.0","task_version":"prescreen-v0.3","browser_interactions":0,"infrequency":0},{"responses":{"Q10":"3","Q01":"1","Q05":"3","Q02":"1","Q03":"1","Q09":"2","Q13":"0","Q11":"2","Q06":"3","Q04":"1","Q08":"3","Q12":"3","Q07":"3"},"rt":64038.700000047684,"item_order":[9,0,4,1,2,8,12,10,5,3,7,11,6],"radio_events":[8129.899999976158,10173.700000047684,14739.299999952316,21096.700000047684,22415.700000047684,25095.700000047684,28590.5,46386.299999952316,48936.5,52064,57337.39999997616,60846.700000047684,62723.39999997616],"key_events":[],"mouse_events":[8129.899999976158,10173.700000047684,14739.299999952316,18061,21096.700000047684,22415.700000047684,25095.700000047684,28590.5,46386.299999952316,48936.5,52064,57337.39999997616,60846.700000047684,62723.39999997616,64037.5],"straightlining":0.46153846153846156,"zigzagging":0.16666666666666666,"honeypot":0,"survey":"bisbas","trial_type":"survey-template","trial_index":3,"time_elapsed":227437,"internal_node_id":"0.0-3.0","task_version":"prescreen-v0.3","browser_interactions":0,"infrequency":0},{"responses":{"Q01":"4","Q02":"3","Q03":"4"},"rt":33982.700000047684,"radio_events":[25059.5,28991.100000023842,32639.300000071526],"key_events":[],"mouse_events":[25059.5,28991.100000023842,32639.300000071526,33980.200000047684],"survey":"map","page":1,"trial_type":"survey-map","trial_index":4,"time_elapsed":261425,"internal_node_id":"0.0-4.0","task_version":"prescreen-v0.3","browser_interactions":0},{"responses":{"Q04":"3","Q05":"3","Q06":"3"},"rt":21327.700000047684,"radio_events":[14796.300000071526,16797.600000023842,20102.700000047684],"key_events":[],"mouse_events":[14796.300000071526,16797.600000023842,20102.700000047684,21325.600000023842],"survey":"map","page":2,"trial_type":"survey-map","trial_index":5,"time_elapsed":282757,"internal_node_id":"0.0-5.0","task_version":"prescreen-v0.3","browser_interactions":0},{"responses":{"Q07":"4","Q08":"4","Q09":"3"},"rt":41002.09999990463,"radio_events":[35699.59999990463,38186.199999928474,39726.299999952316],"key_events":[],"mouse_events":[35699.59999990463,38186.199999928474,39726.299999952316,40996],"survey":"map","page":3,"trial_type":"survey-map","trial_index":6,"time_elapsed":323768,"internal_node_id":"0.0-6.0","task_version":"prescreen-v0.3","browser_interactions":0},{"responses":{"Q10":"3","Q11":"3","Q12":"3","Q13":"4","Q16":"0","Q14":"3","Q15":"4"},"rt":37441.700000047684,"radio_events":[15867.5,17453.100000023842,21038.300000071526,23341.399999976158,31456.899999976158,33972.700000047684,36102.10000002384],"key_events":[],"mouse_events":[15867.5,17453.100000023842,21038.300000071526,23341.399999976158,28898.200000047684,31456.899999976158,33972.700000047684,36102.10000002384,37437.300000071526],"survey":"map","page":4,"trial_type":"survey-map","trial_index":7,"time_elapsed":361219,"internal_node_id":"0.0-7.0","task_version":"prescreen-v0.3","browser_interactions":0,"infrequency":0},{"view_history":[{"page_index":0,"viewing_time":10270.200000047684},{"page_index":1,"viewing_time":18169.899999976158}],"rt":28441.800000071526,"trial_type":"instructions","trial_index":8,"time_elapsed":389663,"internal_node_id":"0.0-8.0","task_version":"prescreen-v0.3"},{"responses":{"01":"No","02":"No","03":"No","04":"No","05":"No","06":"No"},"rt":31216.300000071526,"item_order":[0,1,2,3,4,5],"radio_events":[10470.899999976158,15972.100000023842,19446.5,25383.5,27198.899999976158,29562.300000071526],"checkbox_events":[],"key_events":[],"mouse_events":[0.20000004768371582,9544.399999976158,10470.899999976158,15972.100000023842,19446.5,25383.5,27198.899999976158,29562.300000071526,31209.700000047684],"honeypot":0,"survey":"mace","page":1,"trial_type":"survey-mace","trial_index":9,"time_elapsed":420889,"internal_node_id":"0.0-9.0","task_version":"prescreen-v0.3","browser_interactions":0},{"responses":{"01":"No","02":"No","03":"Yes","03_ages_5":"5","04":"No","05":"No","06":"No","07":"No","08":"No"},"rt":38077.5,"item_order":[0,1,2,3,4,5,6,7],"radio_events":[13922.399999976158,15878.299999952316,18908.899999976158,26281.899999976158,31042.799999952316,32148.699999928474,34539.60000002384,36805.699999928474],"checkbox_events":[23245.199999928474],"key_events":[],"mouse_events":[13922.399999976158,15878.299999952316,18908.899999976158,23245.199999928474,26281.899999976158,29219.899999976158,31042.799999952316,32148.699999928474,34539.60000002384,36805.699999928474,38068.60000002384],"honeypot":0,"survey":"mace","page":2,"trial_type":"survey-mace","trial_index":10,"time_elapsed":458974,"internal_node_id":"0.0-10.0","task_version":"prescreen-v0.3","browser_interactions":0},{"responses":{"01":"No","02":"No","03":"No","04":"No"},"rt":14295.300000071526,"item_order":[0,1,2,3],"radio_events":[6041.600000023842,7905.200000047684,9924,11552.399999976158],"checkbox_events":[],"key_events":[],"mouse_events":[6041.600000023842,7905.200000047684,9924,11552.399999976158,14290.5],"honeypot":0,"survey":"mace","page":3,"trial_type":"survey-mace","trial_index":11,"time_elapsed":473276,"internal_node_id":"0.0-11.0","task_version":"prescreen-v0.3","browser_interactions":0},{"responses":{"01":"No","02":"No"},"rt":20993.600000023842,"item_order":[0,1],"radio_events":[16436.899999976158,18639],"checkbox_events":[],"key_events":[],"mouse_events":[16436.899999976158,18639,20989.800000071526],"honeypot":0,"survey":"mace","page":4,"trial_type":"survey-mace","trial_index":12,"time_elapsed":494272,"internal_node_id":"0.0-12.0","task_version":"prescreen-v0.3","browser_interactions":0},{"responses":{"01":"No","02":"No","03":"No","04":"No","05":"No"},"rt":39571.299999952316,"item_order":[0,1,2,3,4],"radio_events":[5840.100000023842,10645.5,12446.700000047684,15824.399999976158,18897],"checkbox_events":[],"key_events":[],"mouse_events":[5840.100000023842,7527.299999952316,10645.5,12446.700000047684,15824.399999976158,18897,39565.60000002384],"honeypot":0,"survey":"mace","page":5,"trial_type":"survey-mace","trial_index":13,"time_elapsed":533848,"internal_node_id":"0.0-13.0","task_version":"prescreen-v0.3","browser_interactions":0},{"responses":{"01":"No","02":"No","03":"Yes","03_ages_14":"14","04":"Yes","04_ages_14":"14","05":"No"},"rt":32994.800000071526,"item_order":[0,1,2,3,4],"radio_events":[13542.899999976158,18245.899999976158,20979.600000023842,26988.899999976158,31664.200000047684],"checkbox_events":[24934.100000023842,29053.600000023842],"key_events":[],"mouse_events":[13542.899999976158,18245.899999976158,20979.600000023842,24934.100000023842,26988.899999976158,29053.600000023842,31664.200000047684,32985.800000071526],"honeypot":0,"survey":"mace","page":6,"trial_type":"survey-mace","trial_index":14,"time_elapsed":566847,"internal_node_id":"0.0-14.0","task_version":"prescreen-v0.3","browser_interactions":0},{"responses":{"01":"No","02":"No","03":"No","04":"No","05":"No","06":"No","07":"No"},"rt":23737.299999952316,"item_order":[0,1,2,3,4,5,6],"radio_events":[7853,10681,12367.399999976158,16155.799999952316,18187.700000047684,19825.899999976158,21200.299999952316],"checkbox_events":[],"key_events":[],"mouse_events":[7853,10681,12367.399999976158,16155.799999952316,18187.700000047684,19825.899999976158,21200.299999952316,23731.899999976158],"honeypot":0,"survey":"mace","page":7,"trial_type":"survey-mace","trial_index":15,"time_elapsed":590591,"internal_node_id":"0.0-15.0","task_version":"prescreen-v0.3","browser_interactions":0},{"responses":{"01":"No","02":"No","03":"No","04":"Yes","04_ages_14":"14","04_ages_15":"15","04_ages_16":"16","04_ages_17":"17","04_ages_18":"18"},"rt":27910,"item_order":[0,1,2,3],"radio_events":[8721.100000023842,13650,15855.600000023842,20658.699999928474],"checkbox_events":[22620.199999928474,23729.899999976158,24707,25624.199999928474,26835],"key_events":[],"mouse_events":[8721.100000023842,13650,15855.600000023842,20658.699999928474,22620.199999928474,23729.899999976158,24707,25624.199999928474,26835,27907.600000023842],"honeypot":0,"survey":"mace","page":8,"trial_type":"survey-mace","trial_index":16,"time_elapsed":618505,"internal_node_id":"0.0-16.0","task_version":"prescreen-v0.3","browser_interactions":0},{"responses":{"01":"Yes","01_ages_1":"1","01_ages_2":"2","01_ages_3":"3","01_ages_4":"4","01_ages_5":"5","01_ages_6":"6","01_ages_7":"7","01_ages_8":"8","01_ages_9":"9","01_ages_10":"10","01_ages_11":"11","01_ages_12":"12","01_ages_13":"13","02":"Yes","02_ages_1":"1","02_ages_2":"2","02_ages_3":"3","02_ages_4":"4","02_ages_5":"5","02_ages_6":"6","02_ages_7":"7","02_ages_8":"8","02_ages_9":"9","02_ages_10":"10","02_ages_11":"11","02_ages_12":"12","02_ages_13":"13","03":"Yes","03_ages_1":"1","03_ages_2":"2","03_ages_3":"3","03_ages_4":"4","03_ages_5":"5","03_ages_6":"6","03_ages_7":"7","03_ages_8":"8","03_ages_9":"9","03_ages_10":"10","03_ages_11":"11","03_ages_12":"12","03_ages_13":"13","03_ages_14":"14","03_ages_15":"15","03_ages_16":"16","03_ages_17":"17","03_ages_18":"18","04":"Yes","04_ages_1":"1","04_ages_2":"2","04_ages_3":"3","04_ages_4":"4","04_ages_5":"5","04_ages_6":"6","04_ages_7":"7","04_ages_8":"8","04_ages_9":"9","04_ages_10":"10","04_ages_11":"11","04_ages_12":"12","04_ages_13":"13","04_ages_14":"14","04_ages_15":"15","04_ages_16":"16","04_ages_17":"17","04_ages_18":"18"},"rt":115353.60000002384,"item_order":[0,1,2,3],"radio_events":[6980.5,31101.700000047684,49667.200000047684,78170.70000004768],"checkbox_events":[12763,13981.5,14731.200000047684,17721.300000071526,18799,20307.600000023842,21093.5,21961.200000047684,23986,24877.5,25862,26824.600000023842,28005.399999976158,32739.899999976158,33393.800000071526,34077.5,34956.5,36852.700000047684,39138.800000071526,40117.200000047684,40984.300000071526,41851.200000047684,42801.300000071526,43803.60000002384,46509.800000071526,47479.10000002384,54106.700000047684,57140.800000071526,61160.89999997616,64680,66633.80000007153,67611.30000007153,68710.5,69813.10000002384,70638.60000002384,71468.70000004768,72488.89999997616,73400.20000004768,74540.30000007153,82025.89999997616,82797.60000002384,83598.30000007153,84457.39999997616,85538.39999997616,86926.60000002384,87850.30000007153,90862.10000002384,92116.60000002384,96600.39999997616,98359.60000002384,99180.60000002384,100012.70000004768,100895.39999997616,101714.70000004768,102563.5,103382.89999997616,105231.80000007153,110447.80000007153,111300.5,112108.30000007153,112901.60000002384,113755.20000004768],"key_events":[],"mouse_events":[6980.5,12763,13981.5,14731.200000047684,15604.5,16801.899999976158,17721.300000071526,18799,20307.600000023842,21093.5,21961.200000047684,23986,24877.5,25862,26824.600000023842,28005.399999976158,31101.700000047684,32739.899999976158,33393.800000071526,34077.5,34956.5,36852.700000047684,39138.800000071526,40117.200000047684,40984.300000071526,41851.200000047684,42801.300000071526,43803.60000002384,46509.800000071526,47479.10000002384,49667.200000047684,54106.700000047684,57140.800000071526,61160.89999997616,62152.5,63650.5,64680,65723.60000002384,66633.80000007153,67611.30000007153,68710.5,69813.10000002384,70638.60000002384,71468.70000004768,72488.89999997616,73400.20000004768,74540.30000007153,78170.70000004768,82025.89999997616,82797.60000002384,83598.30000007153,84457.39999997616,85538.39999997616,86926.60000002384,87850.30000007153,90862.10000002384,92116.60000002384,96600.39999997616,98359.60000002384,99180.60000002384,100012.70000004768,100895.39999997616,101714.70000004768,102563.5,103382.89999997616,105231.80000007153,110447.80000007153,111300.5,112108.30000007153,112901.60000002384,113755.20000004768,115350.39999997616],"honeypot":0,"survey":"mace","page":9,"trial_type":"survey-mace","trial_index":17,"time_elapsed":733863,"internal_node_id":"0.0-17.0","task_version":"prescreen-v0.3","browser_interactions":0},{"responses":{"01":"No","02":"No","03":"No","04":"No","05":"No","06":"Yes","06_ages_17":"17","07":"Yes","07_ages_1":"1","07_ages_2":"2","07_ages_3":"3","07_ages_4":"4","07_ages_5":"5","07_ages_6":"6","07_ages_7":"7","07_ages_8":"8","07_ages_9":"9","07_ages_10":"10","07_ages_11":"11","07_ages_12":"12","07_ages_13":"13","07_ages_14":"14","07_ages_15":"15","07_ages_16":"16","07_ages_17":"17","07_ages_18":"18","08":"Yes","08_ages_1":"1","08_ages_2":"2","08_ages_3":"3","08_ages_4":"4","08_ages_5":"5","08_ages_6":"6","08_ages_7":"7","08_ages_8":"8","08_ages_9":"9","08_ages_10":"10","08_ages_11":"11","08_ages_12":"12","08_ages_13":"13"},"rt":83110,"item_order":[0,1,2,3,4,5,6,7],"radio_events":[4900,6922.699999928474,8732.5,10089.699999928474,14383.899999976158,16907.5,22753.100000023842,61997.39999997616],"checkbox_events":[18911.899999976158,26089,31216.5,32165.5,33354.89999997616,34442.39999997616,35236.10000002384,36131.39999997616,36970.199999928474,37951.39999997616,38740,39674.299999952316,40590.699999928474,41974.699999928474,56154.60000002384,57146.10000002384,58021.199999928474,58946.699999928474,59925.89999997616,68161.29999995232,69080.79999995232,69763.19999992847,70600.89999997616,71857.10000002384,74083.29999995232,75353,76316.29999995232,77242.79999995232,78153.10000002384,78983.10000002384,80349.10000002384,81237.69999992847],"key_events":[],"mouse_events":[4900,6922.699999928474,8732.5,10089.699999928474,14383.899999976158,16907.5,18911.899999976158,22753.100000023842,26089,31216.5,32165.5,33354.89999997616,34442.39999997616,35236.10000002384,36131.39999997616,36970.199999928474,37951.39999997616,38740,39674.299999952316,40590.699999928474,41974.699999928474,56154.60000002384,57146.10000002384,58021.199999928474,58946.699999928474,59925.89999997616,61997.39999997616,68161.29999995232,69080.79999995232,69763.19999992847,70600.89999997616,71857.10000002384,72890.60000002384,74083.29999995232,75353,76316.29999995232,77242.79999995232,78153.10000002384,78983.10000002384,80349.10000002384,81237.69999992847,83092],"honeypot":0,"survey":"mace","page":10,"trial_type":"survey-mace","trial_index":18,"time_elapsed":816983,"internal_node_id":"0.0-18.0","task_version":"prescreen-v0.3","browser_interactions":0,"instructed":0},{"rt":2659.3000000715256,"trial_type":"mental-health-alert","trial_index":19,"time_elapsed":819648,"internal_node_id":"0.0-19.0","task_version":"prescreen-v0.3","interactions":"[]"}]