[{"view_history":[{"page_index":0,"viewing_time":15536},{"page_index":1,"viewing_time":2560.900000035763},{"page_index":2,"viewing_time":2650},{"page_index":3,"viewing_time":2055.099999964237}],"rt":22807,"trial_type":"instructions","trial_index":0,"time_elapsed":23269,"internal_node_id":"0.0-0.0","task_version":"prescreen-v0.3"},{"rt":31894.900000035763,"responses":{"age":"40","gender-categorical":"Male","gender-free-response":"","ethnicity":"Not Hispanic or Latino","race":["White"],"education":"High school","siblings":"5"},"trial_type":"survey-demo","trial_index":1,"time_elapsed":55316,"internal_node_id":"0.0-1.0","task_version":"prescreen-v0.3"},{"responses":{"Q13":"0","Q06":"2","Q12":"1","Q20":"2","Q02":"2","Q18":"2","Q11":"2","Q05":"1","Q19":"2","Q08":"2","Q04":"3","Q03":"2","Q09":"2","Q07":"2","Q15":"1","Q21":"3","Q16":"1","Q10":"0","Q01":"3","Q17":"3","Q14":"0"},"rt":114136.69999998808,"item_order":[12,5,11,19,1,17,10,4,18,7,3,2,8,6,14,20,15,9,0,16,13],"radio_events":[4954.300000011921,16216.900000035763,22746.100000023842,24937.30000001192,28967.19999998808,34757.60000002384,37939.30000001192,44584.60000002384,48583,53965.90000003576,57459,59970.5,68111.40000003576,76964,81081.80000001192,90702.19999998808,94372.40000003576,100489.5,101649.5,104280.30000001192,112717.10000002384],"key_events":[],"mouse_events":[4954.300000011921,16216.900000035763,21986.69999998808,22746.100000023842,24937.30000001192,28967.19999998808,34757.60000002384,37939.30000001192,44584.60000002384,48583,53965.90000003576,57459,59970.5,63873.40000003576,68111.40000003576,76964,81081.80000001192,89352.40000003576,90702.19999998808,94372.40000003576,96683.40000003576,100489.5,101649.5,104280.30000001192,105632.60000002384,112717.10000002384,114125.80000001192],"straightlining":0.47619047619047616,"zigzagging":0.5,"honeypot":0,"survey":"sns","trial_type":"survey-template","trial_index":2,"time_elapsed":169478,"internal_node_id":"0.0-2.0","task_version":"prescreen-v0.3","browser_interactions":0,"infrequency":0},{"responses":{"Q08":"2","Q10":"2","Q04":"1","Q11":"1","Q01":"1","Q13":"0","Q12":"1","Q07":"2","Q09":"1","Q03":"1","Q06":"2","Q02":"1","Q05":"2"},"rt":49181.90000003576,"item_order":[7,9,3,10,0,12,11,6,8,2,5,1,4],"radio_events":[9676.5,11003,13819.400000035763,16146.300000011921,17857.100000023842,20679.900000035763,25574.5,31747.200000047684,32987.80000001192,36913.30000001192,42545,46047.80000001192,48364.90000003576],"key_events":[],"mouse_events":[9676.5,11003,13819.400000035763,16146.300000011921,17857.100000023842,20679.900000035763,25574.5,28389.900000035763,31747.200000047684,32987.80000001192,36913.30000001192,42545,46047.80000001192,48364.90000003576,49174.30000001192],"straightlining":0.5384615384615384,"zigzagging":0.6666666666666666,"honeypot":0,"survey":"bisbas","trial_type":"survey-template","trial_index":3,"time_elapsed":218676,"internal_node_id":"0.0-3.0","task_version":"prescreen-v0.3","browser_interactions":0,"infrequency":0},{"responses":{"Q01":"1","Q02":"1","Q03":"1"},"rt":15578,"radio_events":[5643.699999988079,9472.899999976158,13792.099999964237],"key_events":[],"mouse_events":[5643.699999988079,9472.899999976158,13792.099999964237,15575.099999964237],"survey":"map","page":1,"trial_type":"survey-map","trial_index":4,"time_elapsed":234270,"internal_node_id":"0.0-4.0","task_version":"prescreen-v0.3","browser_interactions":0},{"responses":{"Q04":"3","Q05":"4","Q06":"3"},"rt":14296.5,"radio_events":[4664.699999988079,7966.100000023842,13075.800000011921],"key_events":[],"mouse_events":[4664.699999988079,7966.100000023842,13075.800000011921,14293.199999988079],"survey":"map","page":2,"trial_type":"survey-map","trial_index":5,"time_elapsed":248577,"internal_node_id":"0.0-5.0","task_version":"prescreen-v0.3","browser_interactions":0},{"responses":{"Q07":"2","Q08":"2","Q09":"1"},"rt":15447.100000023842,"radio_events":[5575.699999988079,11316.300000011921,14299.600000023842],"key_events":[],"mouse_events":[5575.699999988079,11316.300000011921,14299.600000023842,15444.100000023842],"survey":"map","page":3,"trial_type":"survey-map","trial_index":6,"time_elapsed":264033,"internal_node_id":"0.0-6.0","task_version":"prescreen-v0.3","browser_interactions":0},{"responses":{"Q10":"1","Q11":"1","Q12":"3","Q13":"3","Q16":"0","Q14":"4","Q15":"4"},"rt":31942.100000023842,"radio_events":[4878.100000023842,7933.300000011921,13067.300000011921,19032.600000023842,22710.399999976158,26333.5,30827.5],"key_events":[],"mouse_events":[4878.100000023842,7933.300000011921,13067.300000011921,19032.600000023842,22710.399999976158,26333.5,30827.5,31937.80000001192],"survey":"map","page":4,"trial_type":"survey-map","trial_index":7,"time_elapsed":295990,"internal_node_id":"0.0-7.0","task_version":"prescreen-v0.3","browser_interactions":0,"infrequency":0},{"view_history":[{"page_index":0,"viewing_time":2210.800000011921},{"page_index":1,"viewing_time":5621.300000011921}],"rt":7834.5,"trial_type":"instructions","trial_index":8,"time_elapsed":303830,"internal_node_id":"0.0-8.0","task_version":"prescreen-v0.3"},{"responses":{"01":"Yes","01_ages_5":"5","01_ages_6":"6","01_ages_7":"7","01_ages_8":"8","01_ages_9":"9","01_ages_10":"10","01_ages_11":"11","01_ages_12":"12","01_ages_13":"13","01_ages_14":"14","01_ages_15":"15","01_ages_16":"16","01_ages_17":"17","01_ages_18":"18","02":"Yes","02_ages_11":"11","02_ages_12":"12","02_ages_13":"13","02_ages_14":"14","02_ages_15":"15","02_ages_16":"16","02_ages_17":"17","02_ages_18":"18","03":"Yes","03_ages_8":"8","03_ages_9":"9","03_ages_10":"10","03_ages_11":"11","03_ages_12":"12","03_ages_13":"13","03_ages_14":"14","03_ages_15":"15","03_ages_16":"16","03_ages_17":"17","03_ages_18":"18","04":"No","05":"No","06":"Yes","06_ages_12":"12","06_ages_13":"13","06_ages_14":"14","06_ages_15":"15","06_ages_16":"16","06_ages_17":"17","06_ages_18":"18"},"rt":69704.10000002384,"item_order":[0,1,2,3,4,5],"radio_events":[4965.5,28530.200000047684,40305.40000003576,52569,55647.10000002384,59646.30000001192,62068.5],"checkbox_events":[13085,13751.900000035763,14378,14904.400000035763,15472.100000023842,16079.800000011921,16632.80000001192,17271.900000035763,18023.700000047684,18696.30000001192,19358.5,20094.200000047684,22173.200000047684,23013.30000001192,30849.30000001192,31897.30000001192,32768.30000001192,33248.5,33776.90000003576,34342.700000047684,36047.30000001192,36776.40000003576,42286.10000002384,43846.200000047684,44404.5,45243.700000047684,45845,46426.60000002384,47723.200000047684,48315.80000001192,49002.40000003576,49682.90000003576,50305.700000047684,64219.10000002384,64741.30000001192,65420.10000002384,65979.10000002384,67202.60000002384,67794.20000004768,68538.30000001192],"key_events":[],"mouse_events":[0.30000001192092896,4965.5,13085,13751.900000035763,14378,14904.400000035763,15472.100000023842,16079.800000011921,16632.80000001192,17271.900000035763,18023.700000047684,18696.30000001192,19358.5,20094.200000047684,21341.200000047684,22173.200000047684,23013.30000001192,28530.200000047684,30849.30000001192,31897.30000001192,32768.30000001192,33248.5,33776.90000003576,34342.700000047684,35088.10000002384,36047.30000001192,36776.40000003576,40305.40000003576,42286.10000002384,43846.200000047684,44404.5,45243.700000047684,45845,46426.60000002384,46954.80000001192,47723.200000047684,48315.80000001192,49002.40000003576,49682.90000003576,50305.700000047684,52569,55647.10000002384,59646.30000001192,62068.5,64219.10000002384,64741.30000001192,65420.10000002384,65979.10000002384,66634.40000003576,67202.60000002384,67794.20000004768,68538.30000001192,69692.10000002384],"honeypot":0,"survey":"mace","page":1,"trial_type":"survey-mace","trial_index":9,"time_elapsed":373564,"internal_node_id":"0.0-9.0","task_version":"prescreen-v0.3","browser_interactions":0},{"responses":{"01":"Yes","01_ages_12":"12","01_ages_13":"13","01_ages_14":"14","01_ages_15":"15","01_ages_16":"16","01_ages_17":"17","01_ages_18":"18","02":"No","03":"Yes","03_ages_2":"2","03_ages_3":"3","03_ages_4":"4","03_ages_5":"5","03_ages_6":"6","03_ages_7":"7","03_ages_8":"8","03_ages_9":"9","03_ages_10":"10","03_ages_11":"11","03_ages_12":"12","03_ages_13":"13","03_ages_14":"14","03_ages_15":"15","03_ages_16":"16","03_ages_17":"17","03_ages_18":"18","04":"Yes","04_ages_2":"2","04_ages_3":"3","04_ages_4":"4","04_ages_5":"5","04_ages_6":"6","04_ages_7":"7","05":"No","05_ages_5":"5","06":"No","07":"No","08":"No"},"rt":75585,"item_order":[0,1,2,3,4,5,6,7],"radio_events":[3121.399999976158,11791,13828.5,41665.09999996424,52324.799999952316,56270.39999997616,62791.59999996424,64359.299999952316,66007.29999995232,67046.09999996424],"checkbox_events":[4688.5,5153.799999952316,6104.299999952316,6655.199999988079,7231.299999952316,7833.299999952316,8582.199999988079,15189.899999976158,17178.5,19377.5,24830.899999976158,26096.69999998808,27542.19999998808,28430.099999964237,29253.799999952316,30917.19999998808,32437.19999998808,33172.19999998808,34452.19999998808,35045,35842.09999996424,37883.39999997616,38485.39999997616,39098.39999997616,44263.299999952316,44991.39999997616,46526.39999997616,47246.5,47942.69999998808,48526.39999997616,54171.59999996424],"key_events":[],"mouse_events":[3121.399999976158,4688.5,5153.799999952316,5695.099999964237,6104.299999952316,6655.199999988079,7231.299999952316,7833.299999952316,8582.199999988079,11791,13828.5,15189.899999976158,17178.5,18132.299999952316,19377.5,23906.399999976158,24830.899999976158,26096.69999998808,27542.19999998808,28430.099999964237,29253.799999952316,30917.19999998808,31702.399999976158,32437.19999998808,33172.19999998808,34452.19999998808,35045,35842.09999996424,36411.09999996424,37130.799999952316,37883.39999997616,38485.39999997616,39098.39999997616,41665.09999996424,44263.299999952316,44991.39999997616,45640.09999996424,46526.39999997616,47246.5,47942.69999998808,48526.39999997616,52324.799999952316,54171.59999996424,56270.39999997616,62791.59999996424,64359.299999952316,66007.29999995232,67046.09999996424,75564.19999998808],"honeypot":0,"survey":"mace","page":2,"trial_type":"survey-mace","trial_index":10,"time_elapsed":449187,"internal_node_id":"0.0-10.0","task_version":"prescreen-v0.3","browser_interactions":0},{"responses":{"01":"Yes","01_ages_13":"13","01_ages_14":"14","01_ages_15":"15","01_ages_16":"16","01_ages_17":"17","01_ages_18":"18","02":"No","03":"No","04":"No"},"rt":20081.80000001192,"item_order":[0,1,2,3],"radio_events":[7029.300000011921,15153.699999988079,17640.899999976158,18860.19999998808],"checkbox_events":[8564.599999964237,9459.5,10067.300000011921,11156.199999988079,11693.300000011921,12282.5],"key_events":[],"mouse_events":[7029.300000011921,8564.599999964237,9459.5,10067.300000011921,11156.199999988079,11693.300000011921,12282.5,15153.699999988079,17640.899999976158,18860.19999998808,20072],"honeypot":0,"survey":"mace","page":3,"trial_type":"survey-mace","trial_index":11,"time_elapsed":469285,"internal_node_id":"0.0-11.0","task_version":"prescreen-v0.3","browser_interactions":0},{"responses":{"01":"Yes","01_ages_11":"11","01_ages_12":"12","01_ages_13":"13","02":"No"},"rt":15505.299999952316,"item_order":[0,1],"radio_events":[5886.899999976158,14347.299999952316],"checkbox_events":[7597.699999988079,8662,11549.099999964237],"key_events":[],"mouse_events":[5886.899999976158,7597.699999988079,8662,11549.099999964237,14347.299999952316,15499],"honeypot":0,"survey":"mace","page":4,"trial_type":"survey-mace","trial_index":12,"time_elapsed":484802,"internal_node_id":"0.0-12.0","task_version":"prescreen-v0.3","browser_interactions":0},{"responses":{"01":"Yes","01_ages_5":"5","01_ages_6":"6","01_ages_7":"7","01_ages_8":"8","01_ages_9":"9","01_ages_10":"10","01_ages_11":"11","01_ages_12":"12","01_ages_13":"13","01_ages_14":"14","01_ages_15":"15","01_ages_16":"16","01_ages_17":"17","01_ages_18":"18","02":"Yes","02_ages_5":"5","02_ages_6":"6","02_ages_7":"7","02_ages_8":"8","02_ages_9":"9","02_ages_10":"10","02_ages_11":"11","02_ages_12":"12","02_ages_13":"13","02_ages_14":"14","02_ages_15":"15","02_ages_16":"16","02_ages_17":"17","02_ages_18":"18","03":"Yes","03_ages_16":"16","03_ages_17":"17","03_ages_18":"18","04":"Yes","04_ages_12":"12","04_ages_13":"13","04_ages_14":"14","04_ages_15":"15","04_ages_16":"16","04_ages_17":"17","04_ages_18":"18","05":"Yes","05_ages_12":"12","05_ages_13":"13","05_ages_14":"14","05_ages_15":"15","05_ages_16":"16","05_ages_17":"17","05_ages_18":"18"},"rt":87531,"item_order":[0,1,2,3,4],"radio_events":[4955.199999988079,22098.5,54357.59999996424,66760.19999998808,78051.59999996424],"checkbox_events":[7290.199999988079,7808.299999952316,9304.199999988079,9999.099999964237,10559.199999988079,11279.199999988079,12119.5,12760.599999964237,13422.199999988079,14182.5,14846.399999976158,15544.199999988079,16205.299999952316,16860.899999976158,17484.69999998808,18124.799999952316,18804.69999998808,19483.899999976158,34062.59999996424,34743.89999997616,35343.09999996424,36014.5,36541.19999998808,37092,37852,38721.09999996424,39212,39827.5,40653.5,42026.299999952316,42594.39999997616,44291.89999997616,46129.19999998808,46712.59999996424,47256.69999998808,47920.69999998808,49119.59999996424,50156.09999996424,56556.69999998808,57324.89999997616,58004.69999998808,70704.09999996424,71638.19999998808,72287.09999996424,72959.19999998808,73893.09999996424,74485.59999996424,75069.29999995232,79849.69999998808,80410.5,82339,82947.59999996424,83595.5,84904.5,85688.69999998808],"key_events":[],"mouse_events":[4955.199999988079,7290.199999988079,7808.299999952316,9304.199999988079,9999.099999964237,10559.199999988079,11279.199999988079,12119.5,12760.599999964237,13422.199999988079,14182.5,14846.399999976158,15544.199999988079,16205.299999952316,16860.899999976158,17484.69999998808,18124.799999952316,18804.69999998808,19483.899999976158,22098.5,34062.59999996424,34743.89999997616,35343.09999996424,36014.5,36541.19999998808,37092,37852,38721.09999996424,39212,39827.5,40653.5,41356.09999996424,42026.299999952316,42594.39999997616,44291.89999997616,44860.19999998808,46129.19999998808,46712.59999996424,47256.69999998808,47920.69999998808,49119.59999996424,50156.09999996424,54357.59999996424,56556.69999998808,57324.89999997616,58004.69999998808,66760.19999998808,69144.09999996424,70704.09999996424,71638.19999998808,72287.09999996424,72959.19999998808,73893.09999996424,74485.59999996424,75069.29999995232,78051.59999996424,79849.69999998808,80410.5,81291.59999996424,82339,82947.59999996424,83595.5,84113.59999996424,84904.5,85688.69999998808,87520.09999996424],"honeypot":0,"survey":"mace","page":5,"trial_type":"survey-mace","trial_index":13,"time_elapsed":572349,"internal_node_id":"0.0-13.0","task_version":"prescreen-v0.3","browser_interactions":0},{"responses":{"01":"Yes","01_ages_7":"7","01_ages_8":"8","01_ages_9":"9","01_ages_10":"10","01_ages_11":"11","01_ages_12":"12","01_ages_13":"13","01_ages_14":"14","01_ages_15":"15","01_ages_16":"16","01_ages_17":"17","01_ages_18":"18","02":"Yes","02_ages_7":"7","02_ages_8":"8","02_ages_9":"9","02_ages_10":"10","02_ages_11":"11","02_ages_12":"12","02_ages_13":"13","02_ages_14":"14","02_ages_15":"15","02_ages_16":"16","02_ages_17":"17","02_ages_18":"18","03":"No","04":"Yes","04_ages_12":"12","04_ages_13":"13","04_ages_14":"14","04_ages_15":"15","04_ages_16":"16","04_ages_17":"17","04_ages_18":"18","05":"No"},"rt":54103.60000002384,"item_order":[0,1,2,3,4],"radio_events":[10975.100000023842,22499.30000001192,36668.60000002384,39605.89999997616,41930.5,53008.5],"checkbox_events":[12558.699999988079,13086.800000011921,13695.699999988079,14239.600000023842,14864.199999988079,15476.800000011921,16212.800000011921,18900.30000001192,19379.899999976158,19979,20579.399999976158,21540.100000023842,24321.100000023842,25289.100000023842,25812.30000001192,26401.100000023842,27352.600000023842,28136.19999998808,28904.80000001192,29567.19999998808,30663.5,31312.80000001192,32046.600000023842,32713,43386,44329.69999998808,44851.39999997616,45475,46153.60000002384,46897.30000001192,47495.69999998808],"key_events":[],"mouse_events":[10975.100000023842,12558.699999988079,13086.800000011921,13695.699999988079,14239.600000023842,14864.199999988079,15476.800000011921,16212.800000011921,18900.30000001192,19379.899999976158,19979,20579.399999976158,21540.100000023842,22499.30000001192,24321.100000023842,24825.69999998808,25289.100000023842,25812.30000001192,26401.100000023842,27352.600000023842,28136.19999998808,28904.80000001192,29567.19999998808,30223.80000001192,30663.5,31312.80000001192,32046.600000023842,32713,36668.60000002384,39605.89999997616,41930.5,43386,44329.69999998808,44851.39999997616,45475,46153.60000002384,46897.30000001192,47495.69999998808,53008.5,54093.60000002384],"honeypot":0,"survey":"mace","page":6,"trial_type":"survey-mace","trial_index":14,"time_elapsed":626472,"internal_node_id":"0.0-14.0","task_version":"prescreen-v0.3","browser_interactions":0},{"responses":{"01":"Yes","01_ages_13":"13","01_ages_14":"14","01_ages_15":"15","01_ages_16":"16","01_ages_17":"17","02":"No","03":"Yes","03_ages_13":"13","03_ages_14":"14","03_ages_15":"15","03_ages_16":"16","04":"Yes","04_ages_13":"13","04_ages_14":"14","04_ages_15":"15","04_ages_16":"16","05":"No","06":"No","07":"No"},"rt":29125.799999952316,"item_order":[0,1,2,3,4,5,6],"radio_events":[3824.699999988079,10655.199999988079,12757.099999964237,19354,25023.19999998808,26375.399999976158,28110.5],"checkbox_events":[5449.399999976158,5896.099999964237,6391.399999976158,6991.199999988079,7942.799999952316,13997.099999964237,14525.199999988079,15126,17379.299999952316,20545.299999952316,22288.099999964237,22848.899999976158,23384.099999964237],"key_events":[],"mouse_events":[3824.699999988079,5449.399999976158,5896.099999964237,6391.399999976158,6991.199999988079,7942.799999952316,10655.199999988079,12757.099999964237,13997.099999964237,14525.199999988079,15126,17379.299999952316,19354,20545.299999952316,21105.5,21825.899999976158,22288.099999964237,22848.899999976158,23384.099999964237,25023.19999998808,26375.399999976158,28110.5,29110.19999998808],"honeypot":0,"survey":"mace","page":7,"trial_type":"survey-mace","trial_index":15,"time_elapsed":655619,"internal_node_id":"0.0-15.0","task_version":"prescreen-v0.3","browser_interactions":0},{"responses":{"01":"Yes","01_ages_1":"1","01_ages_2":"2","01_ages_3":"3","01_ages_4":"4","01_ages_5":"5","01_ages_6":"6","01_ages_7":"7","01_ages_8":"8","01_ages_9":"9","01_ages_10":"10","01_ages_11":"11","01_ages_12":"12","01_ages_13":"13","01_ages_14":"14","01_ages_15":"15","01_ages_16":"16","01_ages_17":"17","01_ages_18":"18","02":"Yes","02_ages_1":"1","02_ages_2":"2","02_ages_3":"3","02_ages_4":"4","02_ages_5":"5","02_ages_6":"6","02_ages_7":"7","02_ages_8":"8","02_ages_9":"9","02_ages_10":"10","02_ages_11":"11","02_ages_12":"12","02_ages_13":"13","02_ages_14":"14","02_ages_15":"15","02_ages_16":"16","02_ages_17":"17","02_ages_18":"18","03":"No","04":"No"},"rt":56322.80000001192,"item_order":[0,1,2,3],"radio_events":[9731.300000011921,33026,54169.10000002384,55233.19999998808],"checkbox_events":[11618.300000011921,12370.300000011921,12946.600000023842,14088.800000011921,15018.800000011921,15880.600000023842,16530.100000023842,17121.69999998808,17856.69999998808,18488,20782.69999998808,22039.19999998808,23350.100000023842,24078.80000001192,26677,27652.30000001192,28388.399999976158,29419.80000001192,34593,35665,36593.19999998808,37152.10000002384,37936.10000002384,38535.5,39087.30000001192,39840.19999998808,40440.30000001192,41286.80000001192,41918.39999997616,42837.39999997616,43981.39999997616,44661.30000001192,45509.30000001192,46478.80000001192,47467.39999997616,48467.30000001192],"key_events":[],"mouse_events":[9731.300000011921,11618.300000011921,12370.300000011921,12946.600000023842,13457.300000011921,14088.800000011921,15018.800000011921,15880.600000023842,16530.100000023842,17121.69999998808,17856.69999998808,18488,19145.69999998808,19983.399999976158,20782.69999998808,22039.19999998808,22934,23350.100000023842,24078.80000001192,25142.30000001192,26677,27652.30000001192,28388.399999976158,29419.80000001192,33026,34593,35665,36593.19999998808,37152.10000002384,37936.10000002384,38535.5,39087.30000001192,39840.19999998808,40440.30000001192,41286.80000001192,41918.39999997616,42837.39999997616,43981.39999997616,44661.30000001192,45509.30000001192,46478.80000001192,47467.39999997616,48467.30000001192,54169.10000002384,55233.19999998808,56313.5],"honeypot":0,"survey":"mace","page":8,"trial_type":"survey-mace","trial_index":16,"time_elapsed":711954,"internal_node_id":"0.0-16.0","task_version":"prescreen-v0.3","browser_interactions":0},{"responses":{"01":"No","02":"No","03":"No","04":"Yes","04_ages_1":"1","04_ages_2":"2","04_ages_3":"3","04_ages_4":"4","04_ages_5":"5","04_ages_6":"6","04_ages_7":"7","04_ages_8":"8","04_ages_9":"9","04_ages_10":"10","04_ages_11":"11","04_ages_12":"12","04_ages_13":"13","04_ages_14":"14","04_ages_15":"15","04_ages_16":"16","04_ages_17":"17","04_ages_18":"18"},"rt":28509,"item_order":[0,1,2,3],"radio_events":[4973,6661,9427,13210.099999964237],"checkbox_events":[15137.099999964237,15633.299999952316,16402.69999998808,17944,18647.599999964237,19195.5,19943.19999998808,20758.099999964237,21286.19999998808,21926.69999998808,22701.799999952316,23349.399999976158,24110.5,24717.399999976158,25284.399999976158,25974.099999964237,26587.799999952316,27667.899999976158],"key_events":[],"mouse_events":[4973,6661,9427,13210.099999964237,15137.099999964237,15633.299999952316,16402.69999998808,17040.299999952316,17944,18647.599999964237,19195.5,19943.19999998808,20758.099999964237,21286.19999998808,21926.69999998808,22701.799999952316,23349.399999976158,24110.5,24717.399999976158,25284.399999976158,25974.099999964237,26587.799999952316,27667.899999976158,28499.69999998808],"honeypot":0,"survey":"mace","page":9,"trial_type":"survey-mace","trial_index":17,"time_elapsed":740478,"internal_node_id":"0.0-17.0","task_version":"prescreen-v0.3","browser_interactions":0},{"responses":{"01":"Yes","01_ages_1":"1","01_ages_2":"2","01_ages_3":"3","01_ages_4":"4","02":"Yes","02_ages_1":"1","02_ages_2":"2","02_ages_3":"3","02_ages_4":"4","03":"No","04":"No","05":"No","06":"Yes","06_ages_17":"17","07":"No","08":"No"},"rt":38925.89999997616,"item_order":[0,1,2,3,4,5,6,7],"radio_events":[3913.899999976158,11927.599999964237,14842.300000011921,16294.300000011921,22276.5,25386.399999976158,27529.599999964237,29040.19999998808,34558.89999997616,35725.69999998808],"checkbox_events":[5530.399999976158,6080.800000011921,6986.199999988079,9264.899999976158,17525.5,18821.399999976158,19375.30000001192,19980.099999964237,30496.69999998808],"key_events":[],"mouse_events":[3913.899999976158,5530.399999976158,6080.800000011921,6986.199999988079,7561.800000011921,8208.399999976158,9264.899999976158,11927.599999964237,14842.300000011921,16294.300000011921,17525.5,18125.30000001192,18821.399999976158,19375.30000001192,19980.099999964237,22276.5,25386.399999976158,27529.599999964237,29040.19999998808,30496.69999998808,32942.69999998808,34558.89999997616,35725.69999998808,38909.39999997616],"honeypot":0,"survey":"mace","page":10,"trial_type":"survey-mace","trial_index":18,"time_elapsed":779425,"internal_node_id":"0.0-18.0","task_version":"prescreen-v0.3","browser_interactions":0,"instructed":0},{"rt":6278.699999988079,"trial_type":"mental-health-alert","trial_index":19,"time_elapsed":785713,"internal_node_id":"0.0-19.0","task_version":"prescreen-v0.3","interactions":"[{\"event\":\"blur\",\"trial\":0,\"time\":6013},{\"event\":\"focus\",\"trial\":0,\"time\":13347}]"}]