[{"view_history":[{"page_index":0,"viewing_time":10780},{"page_index":1,"viewing_time":2617},{"page_index":2,"viewing_time":3872},{"page_index":3,"viewing_time":1240}],"rt":18509,"trial_type":"instructions","trial_index":0,"time_elapsed":18517,"internal_node_id":"0.0-0.0","task_version":"prescreen-v0.3"},{"rt":26289,"responses":{"age":"33","gender-categorical":"Male","gender-free-response":"","ethnicity":"Not Hispanic or Latino","race":["White"],"education":"Master degree or higher"},"trial_type":"survey-demo","trial_index":1,"time_elapsed":44859,"internal_node_id":"0.0-1.0","task_version":"prescreen-v0.3"},{"responses":{"Q17":"1","Q12":"0","Q13":"1","Q06":"1","Q11":"0","Q19":"0","Q14":"1","Q03":"1","Q07":"0","Q21":"3","Q08":"1","Q01":"1","Q16":"0","Q05":"1","Q18":"1","Q15":"0","Q10":"1","Q04":"0","Q20":"1","Q02":"0","Q09":"1"},"rt":171193,"item_order":[16,11,12,5,10,18,13,2,6,20,7,0,15,4,17,14,9,3,19,1,8],"radio_events":[90694,93988,98244,99077,99836,103397,104188,120133,123030,124141,126294,127181,128165,132157,132725,136261,137437,155204,161517,162316,163101,165397,169030,169181,169894],"key_events":[],"mouse_events":[5133,89804,90694,92917,93988,96469,98244,99077,99836,101791,103014,103397,104188,119565,120133,123030,124141,126294,127181,128165,129069,130220,130725,131420,132157,132725,134342,135429,136261,137437,155204,160749,161517,162316,163101,164732,165397,166254,166661,168173,168573,169030,169181,169894,171192],"straightlining":0.5714285714285714,"zigzagging":0.7,"honeypot":0,"survey":"sns","trial_type":"survey-template","trial_index":2,"time_elapsed":216070,"internal_node_id":"0.0-2.0","task_version":"prescreen-v0.3","browser_interactions":6,"infrequency":0},{"responses":{"Q08":"3","Q07":"2","Q13":"2","Q12":"1","Q09":"2","Q01":"2","Q03":"1","Q02":"1","Q11":"2","Q04":"1","Q06":"1","Q10":"2","Q05":"1"},"rt":207690,"item_order":[7,6,12,11,8,0,2,1,10,3,5,9,4],"radio_events":[178192,180330,182457,185282,189273,191985,196409,199346,200338,202121,203072,206072,206905],"key_events":[],"mouse_events":[170713,177713,178192,180330,181201,182457,183761,184376,185282,185977,188857,189273,191985,193466,195337,196409,199346,200338,201504,202121,203072,204025,206072,206905,207690],"straightlining":0.46153846153846156,"zigzagging":0.6666666666666666,"honeypot":0,"survey":"bisbas","trial_type":"survey-template","trial_index":3,"time_elapsed":423767,"internal_node_id":"0.0-3.0","task_version":"prescreen-v0.3","browser_interactions":2,"infrequency":1},{"responses":{"Q01":"1","Q02":"3","Q03":"2"},"rt":24337,"radio_events":[11458,16105,19137],"key_events":[],"mouse_events":[11458,15601,16105,18585,19137,24337],"survey":"map","page":1,"trial_type":"survey-map","trial_index":4,"time_elapsed":448110,"internal_node_id":"0.0-4.0","task_version":"prescreen-v0.3","browser_interactions":0},{"responses":{"Q04":"1","Q05":"2","Q06":"3"},"rt":9869,"radio_events":[2860,6428,8796],"key_events":[],"mouse_events":[2860,3940,5595,5988,6428,8340,8796,9869],"survey":"map","page":2,"trial_type":"survey-map","trial_index":5,"time_elapsed":457982,"internal_node_id":"0.0-5.0","task_version":"prescreen-v0.3","browser_interactions":0},{"responses":{"Q07":"2","Q08":"3","Q09":"2"},"rt":9734,"radio_events":[4773,5653,8790],"key_events":[],"mouse_events":[3541,4773,5653,6652,8790,9734],"survey":"map","page":3,"trial_type":"survey-map","trial_index":6,"time_elapsed":467718,"internal_node_id":"0.0-6.0","task_version":"prescreen-v0.3","browser_interactions":0},{"responses":{"Q10":"1","Q11":"2","Q12":"1","Q13":"3","Q16":"3","Q14":"2","Q15":"3"},"rt":134036,"radio_events":[4547,5651,10619,36315,75635,76386,77723],"key_events":[],"mouse_events":[4547,5651,7051,8691,10619,35786,36315,75635,76386,77723,134036],"survey":"map","page":4,"trial_type":"survey-map","trial_index":7,"time_elapsed":601758,"internal_node_id":"0.0-7.0","task_version":"prescreen-v0.3","browser_interactions":10,"infrequency":1},{"view_history":[{"page_index":0,"viewing_time":760485},{"page_index":1,"viewing_time":36631}],"rt":797117,"trial_type":"instructions","trial_index":8,"time_elapsed":1398878,"internal_node_id":"0.0-8.0","task_version":"prescreen-v0.3"},{"responses":{"01":"Yes","01_ages_13":"13","02":"Yes","02_ages_13":"13","03":"Yes","03_ages_11":"11","04":"No","05":"Yes","05_ages_8":"8","06":"Yes","06_ages_6":"6","06_ages_13":"13"},"rt":39696,"item_order":[0,1,2,3,4,5],"radio_events":[9609,15801,18529,20705,22222,26081],"checkbox_events":[13521,17328,19481,24634,27176,29121],"key_events":[],"mouse_events":[0,8952,9609,13521,15801,17328,18529,19481,20705,22222,24634,26081,27176,29121,39696],"honeypot":0,"survey":"mace","page":1,"trial_type":"survey-mace","trial_index":9,"time_elapsed":1438591,"internal_node_id":"0.0-9.0","task_version":"prescreen-v0.3","browser_interactions":6},{"responses":{"01":"Yes","01_ages_12":"12","02":"Yes","02_ages_12":"12","03":"Yes","03_ages_13":"13","04":"Yes","04_ages_8":"8","05":"Yes","05_ages_5":"5","06":"No","07":"No","08":"No"},"rt":36197,"item_order":[0,1,2,3,4,5,6,7],"radio_events":[10289,12383,14598,16750,19422,24022,25664,29190,30870,32280],"checkbox_events":[11606,13534,17433,18536,21486],"key_events":[],"mouse_events":[10289,11606,12383,13534,14598,15470,16750,17433,18536,19422,20342,21486,24022,25664,27933,29190,30870,32280,36197],"honeypot":0,"survey":"mace","page":2,"trial_type":"survey-mace","trial_index":10,"time_elapsed":1474800,"internal_node_id":"0.0-10.0","task_version":"prescreen-v0.3","browser_interactions":2},{"responses":{"01":"Yes","01_ages_12":"12","02":"Yes","02_ages_6":"6","03":"Yes","03_ages_12":"12","04":"Yes","04_ages_4":"4"},"rt":15827,"item_order":[0,1,2,3],"radio_events":[6032,8145,10555,12825],"checkbox_events":[7025,9321,11561,14600],"key_events":[],"mouse_events":[6032,7025,8145,9321,10555,11561,12825,14600,15827],"honeypot":0,"survey":"mace","page":3,"trial_type":"survey-mace","trial_index":11,"time_elapsed":1490633,"internal_node_id":"0.0-11.0","task_version":"prescreen-v0.3","browser_interactions":2},{"responses":{"01":"Yes","01_ages_7":"7","02":"No"},"rt":6129,"item_order":[0,1],"radio_events":[2567,3440],"checkbox_events":[4511],"key_events":[],"mouse_events":[1384,2567,3440,4511,6129],"honeypot":0,"survey":"mace","page":4,"trial_type":"survey-mace","trial_index":12,"time_elapsed":1496766,"internal_node_id":"0.0-12.0","task_version":"prescreen-v0.3","browser_interactions":0},{"responses":{"01":"Yes","01_ages_4":"4","02":"No","03":"Yes","03_ages_7":"7","04":"No","05":"Yes","05_ages_6":"6","05_ages_7":"7"},"rt":32625,"item_order":[0,1,2,3,4],"radio_events":[5555,11876,13194,16033,16944],"checkbox_events":[10746,14641,28322,29721],"key_events":[],"mouse_events":[5555,9414,10746,11876,13194,14641,16033,16944,28322,29721,32625],"honeypot":0,"survey":"mace","page":5,"trial_type":"survey-mace","trial_index":13,"time_elapsed":1529398,"internal_node_id":"0.0-13.0","task_version":"prescreen-v0.3","browser_interactions":12},{"responses":{"01":"Yes","01_ages_8":"8","02":"Yes","02_ages_13":"13","03":"Yes","03_ages_10":"10","04":"Yes","04_ages_14":"14","04_ages_15":"15","05":"Yes","05_ages_5":"5"},"rt":29980,"item_order":[0,1,2,3,4],"radio_events":[3401,14185,16537,23185,27265],"checkbox_events":[4761,15314,17586,19193,21818,24401,25449,28674],"key_events":[],"mouse_events":[3401,4761,14185,15314,16537,17586,18762,19193,21818,23185,24401,25449,27265,28674,29980],"honeypot":0,"survey":"mace","page":6,"trial_type":"survey-mace","trial_index":14,"time_elapsed":1559385,"internal_node_id":"0.0-14.0","task_version":"prescreen-v0.3","browser_interactions":4},{"responses":{"01":"Yes","01_ages_14":"14","02":"No","03":"No","04":"Yes","04_ages_6":"6","05":"No","06":"Yes","06_ages_5":"5","07":"No"},"rt":105759,"item_order":[0,1,2,3,4,5,6],"radio_events":[70518,75692,76485,77557,95173,95917,99437],"checkbox_events":[71717,94108,97389],"key_events":[],"mouse_events":[70518,71717,75692,76485,77557,94108,95173,95917,97389,99437,105759],"honeypot":0,"survey":"mace","page":7,"trial_type":"survey-mace","trial_index":15,"time_elapsed":1665154,"internal_node_id":"0.0-15.0","task_version":"prescreen-v0.3","browser_interactions":8},{"responses":{"01":"Yes","01_ages_15":"15","02":"No","03":"Yes","03_ages_13":"13","04":"No"},"rt":45088,"item_order":[0,1,2,3],"radio_events":[37436,39429,41406,44054],"checkbox_events":[38863,42925],"key_events":[],"mouse_events":[37436,38469,38863,39429,41406,42925,44054,45088],"honeypot":0,"survey":"mace","page":8,"trial_type":"survey-mace","trial_index":16,"time_elapsed":1710249,"internal_node_id":"0.0-16.0","task_version":"prescreen-v0.3","browser_interactions":2},{"responses":{"01":"Yes","01_ages_14":"14","02":"No","03":"Yes","03_ages_12":"12","04":"No"},"rt":122417,"item_order":[0,1,2,3],"radio_events":[114470,116663,117567,120599],"checkbox_events":[115415,119254],"key_events":[],"mouse_events":[114470,115415,116663,117567,119254,120599,122417],"honeypot":0,"survey":"mace","page":9,"trial_type":"survey-mace","trial_index":17,"time_elapsed":1832673,"internal_node_id":"0.0-17.0","task_version":"prescreen-v0.3","browser_interactions":2},{"responses":{"01":"Yes","01_ages_4":"4","02":"No","03":"No","04":"Yes","04_ages_9":"9","05":"No","06":"Yes","06_ages_17":"17","07":"Yes","07_ages_11":"11","08":"Yes","08_ages_8":"8"},"rt":20313,"item_order":[0,1,2,3,4,5,6,7],"radio_events":[1621,3478,3997,8733,11598,12470,15693,17342],"checkbox_events":[2590,10309,13350,16638,18925],"key_events":[],"mouse_events":[1621,2590,3478,3997,8733,10309,11598,12470,13350,15693,16638,17342,18925,20312],"honeypot":0,"survey":"mace","page":10,"trial_type":"survey-mace","trial_index":18,"time_elapsed":1852994,"internal_node_id":"0.0-18.0","task_version":"prescreen-v0.3","browser_interactions":0,"instructed":0},{"rt":38377,"trial_type":"mental-health-alert","trial_index":19,"time_elapsed":1891373,"internal_node_id":"0.0-19.0","task_version":"prescreen-v0.3","interactions":"[{\"event\":\"focus\",\"trial\":0,\"time\":10683},{\"event\":\"blur\",\"trial\":2,\"time\":53531},{\"event\":\"focus\",\"trial\":2,\"time\":134558},{\"event\":\"blur\",\"trial\":2,\"time\":157500},{\"event\":\"focus\",\"trial\":2,\"time\":164283},{\"event\":\"blur\",\"trial\":2,\"time\":188561},{\"event\":\"focus\",\"trial\":2,\"time\":200001},{\"event\":\"blur\",\"trial\":3,\"time\":222147},{\"event\":\"focus\",\"trial\":3,\"time\":386679},{\"event\":\"blur\",\"trial\":7,\"time\":498544},{\"event\":\"focus\",\"trial\":7,\"time\":500100},{\"event\":\"blur\",\"trial\":7,\"time\":500761},{\"event\":\"focus\",\"trial\":7,\"time\":501634},{\"event\":\"blur\",\"trial\":7,\"time\":507608},{\"event\":\"focus\",\"trial\":7,\"time\":543272},{\"event\":\"blur\",\"trial\":7,\"time\":546496},{\"event\":\"focus\",\"trial\":7,\"time\":551801},{\"event\":\"blur\",\"trial\":7,\"time\":552979},{\"event\":\"focus\",\"trial\":7,\"time\":598260},{\"event\":\"blur\",\"trial\":8,\"time\":603406},{\"event\":\"focus\",\"trial\":8,\"time\":1360232},{\"event\":\"blur\",\"trial\":8,\"time\":1363028},{\"event\":\"focus\",\"trial\":8,\"time\":1386175},{\"event\":\"blur\",\"trial\":8,\"time\":1387327},{\"event\":\"focus\",\"trial\":8,\"time\":1397704},{\"event\":\"blur\",\"trial\":9,\"time\":1400758},{\"event\":\"focus\",\"trial\":9,\"time\":1407738},{\"event\":\"blur\",\"trial\":9,\"time\":1431356},{\"event\":\"focus\",\"trial\":9,\"time\":1434122},{\"event\":\"blur\",\"trial\":9,\"time\":1435866},{\"event\":\"focus\",\"trial\":9,\"time\":1436203},{\"event\":\"blur\",\"trial\":10,\"time\":1440377},{\"event\":\"focus\",\"trial\":10,\"time\":1448809},{\"event\":\"blur\",\"trial\":11,\"time\":1478616},{\"event\":\"focus\",\"trial\":11,\"time\":1480761},{\"event\":\"blur\",\"trial\":13,\"time\":1497848},{\"event\":\"focus\",\"trial\":13,\"time\":1502235},{\"event\":\"blur\",\"trial\":13,\"time\":1503579},{\"event\":\"focus\",\"trial\":13,\"time\":1506083},{\"event\":\"blur\",\"trial\":13,\"time\":1515074},{\"event\":\"focus\",\"trial\":13,\"time\":1518478},{\"event\":\"blur\",\"trial\":13,\"time\":1519084},{\"event\":\"focus\",\"trial\":13,\"time\":1519837},{\"event\":\"blur\",\"trial\":13,\"time\":1520113},{\"event\":\"focus\",\"trial\":13,\"time\":1520834},{\"event\":\"blur\",\"trial\":13,\"time\":1521036},{\"event\":\"focus\",\"trial\":13,\"time\":1522652},{\"event\":\"blur\",\"trial\":14,\"time\":1530237},{\"event\":\"focus\",\"trial\":14,\"time\":1532689},{\"event\":\"blur\",\"trial\":14,\"time\":1537769},{\"event\":\"focus\",\"trial\":14,\"time\":1543477},{\"event\":\"blur\",\"trial\":15,\"time\":1563731},{\"event\":\"focus\",\"trial\":15,\"time\":1629816},{\"event\":\"blur\",\"trial\":15,\"time\":1632197},{\"event\":\"focus\",\"trial\":15,\"time\":1634990},{\"event\":\"blur\",\"trial\":15,\"time\":1642468},{\"event\":\"focus\",\"trial\":15,\"time\":1653395},{\"event\":\"blur\",\"trial\":15,\"time\":1657951},{\"event\":\"focus\",\"trial\":15,\"time\":1658280},{\"event\":\"blur\",\"trial\":16,\"time\":1666087},{\"event\":\"focus\",\"trial\":16,\"time\":1701551},{\"event\":\"blur\",\"trial\":17,\"time\":1711237},{\"event\":\"focus\",\"trial\":17,\"time\":1824650},{\"event\":\"blur\",\"trial\":19,\"time\":1854200},{\"event\":\"focus\",\"trial\":19,\"time\":1891257}]"}]