[{"view_history":[{"page_index":0,"viewing_time":3924.5},{"page_index":1,"viewing_time":6185.39999961853},{"page_index":2,"viewing_time":3094.4000000953674},{"page_index":3,"viewing_time":1080.0999999046326}],"rt":14284.89999961853,"trial_type":"instructions","trial_index":0,"time_elapsed":14296,"internal_node_id":"0.0-0.0","task_version":"prescreen-v0.3"},{"rt":23903.299999713898,"responses":{"age":"26","gender-categorical":"Male","gender-free-response":"","ethnicity":"Not Hispanic or Latino","race":["Black or African American","White"],"education":"Some college"},"trial_type":"survey-demo","trial_index":1,"time_elapsed":38202,"internal_node_id":"0.0-1.0","task_version":"prescreen-v0.3"},{"responses":{"Q06":"1","Q03":"1","Q04":"2","Q12":"2","Q07":"0","Q16":"2","Q05":"2","Q08":"0","Q17":"0","Q19":"0","Q21":"3","Q09":"0","Q11":"0","Q02":"1","Q15":"1","Q13":"1","Q10":"0","Q18":"0","Q20":"0","Q01":"1","Q14":"2"},"rt":337836.80000019073,"item_order":[5,2,3,11,6,15,4,7,16,18,20,8,10,1,14,12,9,17,19,0,13],"radio_events":[34077.09999990463,38618.5,45686.7000002861,52785.300000190735,65767.80000019073,73703.7000002861,152056,171695.30000019073,175051.7000002861,191882.59999990463,197223.2000002861,202072.90000009537,205133.2000002861,208121.59999990463,314458.09999990463,317622.5,321776,326768.5,328347.80000019073,330262,336727.7000002861],"key_events":[],"mouse_events":[34077.09999990463,38618.5,45686.7000002861,52785.300000190735,65767.80000019073,72916.7000002861,73703.7000002861,152056,159367.80000019073,166205.40000009537,171695.30000019073,175051.7000002861,191882.59999990463,195869.2000002861,196701.2000002861,197223.2000002861,202072.90000009537,205133.2000002861,208121.59999990463,232082.30000019073,253305.90000009537,254463.90000009537,314458.09999990463,317622.5,321776,326768.5,328347.80000019073,330262,336727.7000002861,337835.7000002861],"straightlining":0.42857142857142855,"zigzagging":0.35,"honeypot":0,"survey":"sns","trial_type":"survey-template","trial_index":2,"time_elapsed":376042,"internal_node_id":"0.0-2.0","task_version":"prescreen-v0.3","browser_interactions":4,"infrequency":0},{"responses":{"Q08":"3","Q07":"3","Q05":"3","Q09":"2","Q11":"2","Q12":"1","Q13":"0","Q10":"2","Q02":"1","Q06":"2","Q03":"3","Q04":"3","Q01":"3"},"rt":64910.59999990463,"item_order":[7,6,4,8,10,11,12,9,1,5,2,3,0],"radio_events":[11123.5,13140.699999809265,15159.099999904633,17440.199999809265,21487.799999713898,25705.299999713898,29321.699999809265,35455.2999997139,42028,46960.59999990463,50142.09999990463,58111.09999990463,62172.5,64190.699999809265],"key_events":[],"mouse_events":[11123.5,13140.699999809265,15159.099999904633,17440.199999809265,21487.799999713898,25705.299999713898,29321.699999809265,35455.2999997139,42028,43745.39999961853,46960.59999990463,50142.09999990463,58111.09999990463,61694.5,62172.5,64190.699999809265,64909.7999997139],"straightlining":0.46153846153846156,"zigzagging":0.5,"honeypot":0,"survey":"bisbas","trial_type":"survey-template","trial_index":3,"time_elapsed":440956,"internal_node_id":"0.0-3.0","task_version":"prescreen-v0.3","browser_interactions":0,"infrequency":0},{"responses":{"Q01":"4","Q02":"1","Q03":"4"},"rt":19878,"radio_events":[8984.299999713898,13426.699999809265,19368.5],"key_events":[],"mouse_events":[8097.099999904633,8631.199999809265,8984.299999713898,13426.699999809265,19368.5,19877.599999904633],"survey":"map","page":1,"trial_type":"survey-map","trial_index":4,"time_elapsed":460836,"internal_node_id":"0.0-4.0","task_version":"prescreen-v0.3","browser_interactions":0},{"responses":{"Q04":"4","Q05":"2","Q06":"4"},"rt":16270.5,"radio_events":[3523.5999999046326,10552.39999961853,11922.599999904633,15748.89999961853],"key_events":[],"mouse_events":[3523.5999999046326,10552.39999961853,11922.599999904633,15748.89999961853,16270.099999904633],"survey":"map","page":2,"trial_type":"survey-map","trial_index":5,"time_elapsed":477107,"internal_node_id":"0.0-5.0","task_version":"prescreen-v0.3","browser_interactions":0},{"responses":{"Q07":"0","Q08":"2","Q09":"4"},"rt":18274,"radio_events":[5426.099999904633,12328.800000190735,13119.900000095367,17564.400000095367],"key_events":[],"mouse_events":[5426.099999904633,12328.800000190735,13119.900000095367,16078.300000190735,17063.300000190735,17564.400000095367,17858.300000190735,18273.5],"survey":"map","page":3,"trial_type":"survey-map","trial_index":6,"time_elapsed":495382,"internal_node_id":"0.0-6.0","task_version":"prescreen-v0.3","browser_interactions":0},{"responses":{"Q10":"3","Q11":"1","Q12":"1","Q13":"1","Q16":"0","Q14":"2","Q15":"2"},"rt":41438.7999997139,"radio_events":[9505.299999713898,12944.799999713898,16624.199999809265,24043,31131.89999961853,35312.39999961853,40446],"key_events":[],"mouse_events":[9505.299999713898,12944.799999713898,16624.199999809265,24043,31131.89999961853,35312.39999961853,40446,41438.199999809265],"survey":"map","page":4,"trial_type":"survey-map","trial_index":7,"time_elapsed":536822,"internal_node_id":"0.0-7.0","task_version":"prescreen-v0.3","browser_interactions":0,"infrequency":0},{"view_history":[{"page_index":0,"viewing_time":212598.39999961853},{"page_index":1,"viewing_time":6585.60000038147}],"rt":219184.5,"trial_type":"instructions","trial_index":8,"time_elapsed":756007,"internal_node_id":"0.0-8.0","task_version":"prescreen-v0.3"},{"responses":{"01":"Yes","01_ages_4":"4","01_ages_5":"5","01_ages_6":"6","01_ages_7":"7","01_ages_8":"8","01_ages_9":"9","01_ages_10":"10","01_ages_11":"11","01_ages_12":"12","01_ages_13":"13","02":"Yes","02_ages_4":"4","02_ages_5":"5","02_ages_6":"6","02_ages_7":"7","02_ages_8":"8","02_ages_9":"9","02_ages_10":"10","02_ages_11":"11","02_ages_12":"12","02_ages_13":"13","03":"Yes","03_ages_4":"4","03_ages_5":"5","03_ages_6":"6","03_ages_7":"7","03_ages_8":"8","03_ages_9":"9","03_ages_10":"10","03_ages_11":"11","03_ages_12":"12","03_ages_13":"13","04":"Yes","04_ages_13":"13","04_ages_14":"14","04_ages_15":"15","04_ages_16":"16","04_ages_17":"17","04_ages_18":"18","05":"No","06":"Yes","06_ages_4":"4","06_ages_5":"5","06_ages_6":"6","06_ages_7":"7","06_ages_8":"8","06_ages_9":"9","06_ages_10":"10","06_ages_11":"11","06_ages_12":"12","06_ages_13":"13"},"rt":473674.60000038147,"item_order":[0,1,2,3,4,5],"radio_events":[12268.200000286102,55649.2000002861,246425.80000019073,260224.30000019073,318116.2000002861,322687.7000002861,329160.5,383279.80000019073,398331.60000038147,410951.10000038147],"checkbox_events":[21745.400000095367,22646.60000038147,24361.800000190735,24931.60000038147,31617.400000095367,47777.60000038147,270416.60000038147,271335.80000019073,271665.7000002861,271996.80000019073,272336.80000019073,325781.10000038147,326180.2000002861,326512.2000002861,326881.30000019073,332797.90000009537,334076.10000038147,334352.10000038147,334996.2000002861,335439.2000002861,336433.40000009537,336827.40000009537,337348.5,369847.40000009537,370209.5,370561.30000019073,371016.5,374069.30000019073,374411.2000002861,374756,375674,376090.10000038147,376373.10000038147,379026.5,390720.80000019073,391288.80000019073,391780.90000009537,393276.10000038147,413511.40000009537,413962.5,414307.5,414616.5,415470.60000038147,416276.7000002861,422055.60000038147,423780.7000002861,426332.30000019073,441133.80000019073,442022.80000019073,443202.90000009537],"key_events":[],"mouse_events":[0.10000038146972656,12268.200000286102,21745.400000095367,22646.60000038147,24361.800000190735,24931.60000038147,31617.400000095367,47777.60000038147,55649.2000002861,246425.80000019073,260224.30000019073,270416.60000038147,270783.7000002861,271335.80000019073,271665.7000002861,271996.80000019073,272336.80000019073,318116.2000002861,322319.7000002861,322687.7000002861,325781.10000038147,326180.2000002861,326512.2000002861,326881.30000019073,327238.30000019073,329160.5,332797.90000009537,334076.10000038147,334352.10000038147,334996.2000002861,335439.2000002861,335769.30000019073,336433.40000009537,336827.40000009537,337348.5,346646.90000009537,355819.5,358869.10000038147,369847.40000009537,370209.5,370561.30000019073,371016.5,372892.7000002861,374069.30000019073,374411.2000002861,374756,375067.90000009537,375674,376090.10000038147,376373.10000038147,377084.30000019073,379026.5,383279.80000019073,390720.80000019073,391288.80000019073,391780.90000009537,393276.10000038147,398331.60000038147,410951.10000038147,413511.40000009537,413962.5,414307.5,414616.5,415067.7000002861,415470.60000038147,416276.7000002861,416591.80000019073,422055.60000038147,423780.7000002861,426332.30000019073,441133.80000019073,442022.80000019073,443202.90000009537,444019,458236.7000002861,471161.10000038147,473673],"honeypot":0,"survey":"mace","page":1,"trial_type":"survey-mace","trial_index":9,"time_elapsed":1229686,"internal_node_id":"0.0-9.0","task_version":"prescreen-v0.3","browser_interactions":0},{"responses":{"01":"Yes","01_ages_4":"4","01_ages_5":"5","01_ages_6":"6","01_ages_7":"7","01_ages_8":"8","01_ages_9":"9","01_ages_10":"10","01_ages_11":"11","01_ages_12":"12","02":"No","03":"Yes","03_ages_4":"4","03_ages_5":"5","03_ages_6":"6","03_ages_7":"7","03_ages_8":"8","03_ages_9":"9","03_ages_10":"10","03_ages_11":"11","03_ages_12":"12","04":"Yes","04_ages_4":"4","04_ages_5":"5","05":"Yes","05_ages_6":"6","05_ages_7":"7","05_ages_8":"8","05_ages_9":"9","05_ages_10":"10","05_ages_11":"11","05_ages_12":"12","06":"No","07":"No","08":"No"},"rt":117715.2999997139,"item_order":[0,1,2,3,4,5,6,7],"radio_events":[5450.5,16782.900000095367,29971.299999713898,45505.199999809265,52553,105684.40000009537,112864.19999980927,115551.40000009537],"checkbox_events":[8041.799999713898,8402.900000095367,9124.900000095367,9755,10216.099999904633,10538.099999904633,11111.099999904633,11448.299999713898,11911.299999713898,31524.599999904633,32027.699999809265,33314.7999997139,33595,33900.90000009537,34295.90000009537,35051,35665.09999990463,36091.199999809265,36533.5,37739.5,46918.5,48916.699999809265,53907.199999809265,54989.2999997139,55337.2999997139,55723.40000009537,56062,56775.5,57092.699999809265,57679.699999809265,58606.7999997139,109088.7999997139,110324.90000009537],"key_events":[],"mouse_events":[5450.5,8041.799999713898,8402.900000095367,8738.299999713898,9124.900000095367,9439.799999713898,9755,10216.099999904633,10538.099999904633,11111.099999904633,11448.299999713898,11911.299999713898,12242.299999713898,16782.900000095367,17843.900000095367,29971.299999713898,31524.599999904633,32027.699999809265,32787.699999809265,33314.7999997139,33595,33900.90000009537,34295.90000009537,35051,35665.09999990463,36091.199999809265,36533.5,36904.40000009537,37739.5,45505.199999809265,46918.5,48916.699999809265,51324,52553,53907.199999809265,54429.40000009537,54989.2999997139,55337.2999997139,55723.40000009537,56062,56404.59999990463,56775.5,57092.699999809265,57679.699999809265,58606.7999997139,59370.59999990463,100960.69999980927,105684.40000009537,109088.7999997139,110324.90000009537,110790,112864.19999980927,115551.40000009537,117713],"honeypot":0,"survey":"mace","page":2,"trial_type":"survey-mace","trial_index":10,"time_elapsed":1347406,"internal_node_id":"0.0-10.0","task_version":"prescreen-v0.3","browser_interactions":0},{"responses":{"01":"Yes","01_ages_4":"4","01_ages_5":"5","01_ages_6":"6","01_ages_7":"7","01_ages_8":"8","01_ages_9":"9","01_ages_10":"10","01_ages_11":"11","01_ages_12":"12","01_ages_13":"13","01_ages_14":"14","01_ages_15":"15","02":"No","03":"No","04":"No"},"rt":42666.60000038147,"item_order":[0,1,2,3],"radio_events":[11318.800000190735,38814,41088.300000190735,41581.40000009537],"checkbox_events":[20675.10000038147,21055,21437,21731,22023.10000038147,22814.10000038147,23229.200000286102,24233.300000190735,24738.400000095367,27613.800000190735,28214.800000190735,32488.300000190735],"key_events":[],"mouse_events":[11318.800000190735,20675.10000038147,21055,21437,21731,22023.10000038147,22353.10000038147,22814.10000038147,23229.200000286102,23854.200000286102,24233.300000190735,24738.400000095367,27613.800000190735,28214.800000190735,32488.300000190735,38814,40021.2000002861,41088.300000190735,41581.40000009537,42665.5],"honeypot":0,"survey":"mace","page":3,"trial_type":"survey-mace","trial_index":11,"time_elapsed":1390074,"internal_node_id":"0.0-11.0","task_version":"prescreen-v0.3","browser_interactions":0},{"responses":{"01":"No","02":"No"},"rt":25679.700000286102,"item_order":[0,1],"radio_events":[23898.900000095367,24648.800000190735],"checkbox_events":[],"key_events":[],"mouse_events":[23898.900000095367,24648.800000190735,25679],"honeypot":0,"survey":"mace","page":4,"trial_type":"survey-mace","trial_index":12,"time_elapsed":1415756,"internal_node_id":"0.0-12.0","task_version":"prescreen-v0.3","browser_interactions":0},{"responses":{"01":"Yes","01_ages_4":"4","01_ages_5":"5","01_ages_6":"6","01_ages_7":"7","01_ages_8":"8","01_ages_9":"9","01_ages_10":"10","02":"Yes","02_ages_4":"4","02_ages_5":"5","02_ages_6":"6","02_ages_7":"7","02_ages_8":"8","02_ages_9":"9","02_ages_10":"10","03":"No","04":"No","05":"No"},"rt":125867.5,"item_order":[0,1,2,3,4],"radio_events":[6622.099999904633,19006.5,118674.2999997139,123662.90000009537,125002],"checkbox_events":[8254.299999713898,9251.400000095367,9792.400000095367,10244.5,11111.599999904633,11703.799999713898,20520.699999809265,20814.799999713898,21306.799999713898,21661.799999713898,22097.900000095367,22853,27205.5,27853.599999904633],"key_events":[],"mouse_events":[6622.099999904633,8254.299999713898,9251.400000095367,9792.400000095367,10244.5,10723.5,11111.599999904633,11703.799999713898,17432.400000095367,19006.5,20520.699999809265,20814.799999713898,21306.799999713898,21661.799999713898,22097.900000095367,22853,24558.299999713898,27205.5,27853.599999904633,28386.699999809265,110065.2999997139,118674.2999997139,119380.40000009537,123662.90000009537,124224,124623.90000009537,125002,125866.19999980927],"honeypot":0,"survey":"mace","page":5,"trial_type":"survey-mace","trial_index":13,"time_elapsed":1541625,"internal_node_id":"0.0-13.0","task_version":"prescreen-v0.3","browser_interactions":2},{"responses":{"01":"Yes","01_ages_13":"13","01_ages_14":"14","01_ages_15":"15","01_ages_16":"16","01_ages_17":"17","01_ages_18":"18","02":"Yes","02_ages_13":"13","02_ages_14":"14","02_ages_15":"15","02_ages_16":"16","02_ages_17":"17","02_ages_18":"18","03":"Yes","03_ages_13":"13","03_ages_14":"14","03_ages_15":"15","03_ages_16":"16","03_ages_17":"17","03_ages_18":"18","04":"Yes","04_ages_13":"13","04_ages_14":"14","04_ages_15":"15","04_ages_16":"16","04_ages_17":"17","04_ages_18":"18","05":"No"},"rt":37242.5,"item_order":[0,1,2,3,4],"radio_events":[9673.900000095367,19400.900000095367,24551.599999904633,29591.900000095367,36133.7999997139],"checkbox_events":[13261.199999809265,14203.400000095367,14506.400000095367,15169.5,15436.5,15798.5,20039,20574.099999904633,20857.099999904633,21250.199999809265,21591.5,21893.199999809265,25340.699999809265,26168.799999713898,26923.799999713898,27185.799999713898,27491,27770.900000095367,30868.299999713898,31170.299999713898,31474.299999713898,31834.5,32126.400000095367,32436.5],"key_events":[],"mouse_events":[1581.7999997138977,9673.900000095367,13261.199999809265,13687.299999713898,14203.400000095367,14506.400000095367,14837.400000095367,15169.5,15436.5,15798.5,19400.900000095367,20039,20306.099999904633,20574.099999904633,20857.099999904633,21250.199999809265,21591.5,21893.199999809265,23922.400000095367,24305.400000095367,24551.599999904633,25340.699999809265,25679.900000095367,26168.799999713898,26472.699999809265,26923.799999713898,27185.799999713898,27491,27770.900000095367,29591.900000095367,30868.299999713898,31170.299999713898,31474.299999713898,31834.5,32126.400000095367,32436.5,36133.7999997139,37241],"honeypot":0,"survey":"mace","page":6,"trial_type":"survey-mace","trial_index":14,"time_elapsed":1578870,"internal_node_id":"0.0-14.0","task_version":"prescreen-v0.3","browser_interactions":0},{"responses":{"01":"No","02":"No","03":"Yes","03_ages_14":"14","04":"No","05":"No","06":"No","07":"No"},"rt":136379.19999980927,"item_order":[0,1,2,3,4,5,6],"radio_events":[20552.799999713898,107128.7999997139,110109.19999980927,129005.39999961853,132975,134003,135333],"checkbox_events":[115557.7999997139],"key_events":[],"mouse_events":[19225.299999713898,20552.799999713898,107128.7999997139,110109.19999980927,115557.7999997139,117954,121065.39999961853,129005.39999961853,132975,134003,135333,136377.2999997139],"honeypot":0,"survey":"mace","page":7,"trial_type":"survey-mace","trial_index":15,"time_elapsed":1715251,"internal_node_id":"0.0-15.0","task_version":"prescreen-v0.3","browser_interactions":0},{"responses":{"01":"Yes","01_ages_4":"4","01_ages_5":"5","01_ages_6":"6","01_ages_7":"7","01_ages_8":"8","01_ages_9":"9","01_ages_10":"10","01_ages_11":"11","01_ages_12":"12","01_ages_13":"13","01_ages_14":"14","01_ages_15":"15","01_ages_16":"16","01_ages_17":"17","01_ages_18":"18","02":"No","03":"Yes","03_ages_4":"4","03_ages_5":"5","03_ages_6":"6","03_ages_7":"7","03_ages_8":"8","03_ages_9":"9","03_ages_10":"10","03_ages_11":"11","03_ages_12":"12","03_ages_13":"13","03_ages_14":"14","03_ages_15":"15","03_ages_16":"16","03_ages_17":"17","03_ages_18":"18","04":"Yes","04_ages_4":"4","04_ages_5":"5","04_ages_6":"6","04_ages_7":"7","04_ages_8":"8","04_ages_9":"9","04_ages_10":"10","04_ages_11":"11","04_ages_12":"12","04_ages_13":"13","04_ages_14":"14","04_ages_15":"15","04_ages_16":"16","04_ages_17":"17","04_ages_18":"18"},"rt":92727.09999990463,"item_order":[0,1,2,3],"radio_events":[14275.700000286102,42784.90000009537,46622.40000009537,69292.09999990463],"checkbox_events":[31152.599999904633,31654,31986.800000190735,32778.800000190735,33091.90000009537,33775.09999990463,34110.09999990463,34425,34737.09999990463,35039,35367.09999990463,35695.2000002861,36786.09999990463,37488.300000190735,38057.40000009537,48096.59999990463,48613.800000190735,48966.7000002861,49283.800000190735,49619.800000190735,49918.800000190735,50201.300000190735,50530.09999990463,50830.90000009537,51633.09999990463,51916.09999990463,52832.2000002861,53154.2000002861,54126.300000190735,54456.300000190735,84744,85275.09999990463,85626,86023.09999990463,86347.2000002861,86965.40000009537,87336.30000019073,87920.2000002861,88384.40000009537,88977.5,89769.5,90336.59999990463,90891.7000002861,91820.80000019073,92233.80000019073],"key_events":[],"mouse_events":[11685.200000286102,14275.700000286102,30035.400000095367,30637.400000095367,31152.599999904633,31654,31986.800000190735,32323.800000190735,32778.800000190735,33091.90000009537,33428.90000009537,33775.09999990463,34110.09999990463,34425,34737.09999990463,35039,35367.09999990463,35695.2000002861,35995.300000190735,36361.09999990463,36786.09999990463,37195.300000190735,37488.300000190735,38057.40000009537,42239,42784.90000009537,46622.40000009537,48096.59999990463,48613.800000190735,48966.7000002861,49283.800000190735,49619.800000190735,49918.800000190735,50201.300000190735,50530.09999990463,50830.90000009537,51122.2000002861,51633.09999990463,51916.09999990463,52246.2000002861,52832.2000002861,53154.2000002861,53505.300000190735,53831.300000190735,54126.300000190735,54456.300000190735,69292.09999990463,84744,85275.09999990463,85626,86023.09999990463,86347.2000002861,86627.2000002861,86965.40000009537,87336.30000019073,87607.40000009537,87920.2000002861,88384.40000009537,88977.5,89769.5,90336.59999990463,90891.7000002861,91432.7000002861,91820.80000019073,92233.80000019073,92725.90000009537],"honeypot":0,"survey":"mace","page":8,"trial_type":"survey-mace","trial_index":16,"time_elapsed":1807981,"internal_node_id":"0.0-16.0","task_version":"prescreen-v0.3","browser_interactions":0},{"responses":{"01":"Yes","01_ages_4":"4","01_ages_5":"5","01_ages_6":"6","01_ages_7":"7","01_ages_8":"8","01_ages_9":"9","01_ages_10":"10","01_ages_11":"11","01_ages_12":"12","01_ages_13":"13","01_ages_14":"14","01_ages_15":"15","01_ages_16":"16","01_ages_17":"17","01_ages_18":"18","02":"Yes","02_ages_4":"4","02_ages_5":"5","02_ages_6":"6","02_ages_7":"7","02_ages_8":"8","02_ages_9":"9","02_ages_10":"10","02_ages_11":"11","02_ages_12":"12","02_ages_13":"13","02_ages_14":"14","02_ages_15":"15","02_ages_16":"16","02_ages_17":"17","02_ages_18":"18","03":"Yes","03_ages_4":"4","03_ages_5":"5","03_ages_6":"6","03_ages_7":"7","03_ages_8":"8","03_ages_9":"9","03_ages_10":"10","03_ages_11":"11","03_ages_12":"12","03_ages_13":"13","03_ages_14":"14","03_ages_15":"15","03_ages_16":"16","03_ages_17":"17","03_ages_18":"18","04":"Yes","04_ages_4":"4","04_ages_5":"5","04_ages_6":"6","04_ages_7":"7","04_ages_8":"8","04_ages_9":"9","04_ages_10":"10","04_ages_11":"11","04_ages_12":"12","04_ages_13":"13","04_ages_14":"14","04_ages_15":"15","04_ages_16":"16","04_ages_17":"17","04_ages_18":"18"},"rt":83315.80000019073,"item_order":[0,1,2,3],"radio_events":[2890.9000000953674,16032.400000095367,29367,43115.800000190735],"checkbox_events":[4855.099999904633,5453.400000095367,5783.199999809265,6685.400000095367,7394.400000095367,8860.5,9201.699999809265,9576.599999904633,10700.800000190735,11409.800000190735,11930,12326,12671,13500.099999904633,13840.099999904633,17692.599999904633,18136.699999809265,18928.300000190735,20220.800000190735,20537,21235,21499,21855.099999904633,22213.099999904633,22517.099999904633,22878.199999809265,23221.300000190735,23560.300000190735,23934.199999809265,24607.400000095367,33902.5,35142.5,35436.699999809265,36310.699999809265,36791.800000190735,37127.199999809265,37543.90000009537,38279,38859,39131.09999990463,39435.09999990463,39752.199999809265,40058.199999809265,40357.300000190735,40671.199999809265,44027.699999809265,44425.90000009537,44752.800000190735,45085.800000190735,45445.90000009537,45849.90000009537,46182.90000009537,46513.90000009537,46855.40000009537,47206.199999809265,47538.09999990463,48563.199999809265,48905.199999809265,49852.40000009537,50262.300000190735],"key_events":[],"mouse_events":[2890.9000000953674,4855.099999904633,5173.099999904633,5453.400000095367,5783.199999809265,6089.199999809265,6685.400000095367,6977.400000095367,7394.400000095367,8860.5,9201.699999809265,9576.599999904633,10700.800000190735,11409.800000190735,11930,12326,12671,13031.099999904633,13500.099999904633,13840.099999904633,16032.400000095367,17692.599999904633,18136.699999809265,18460.900000095367,18928.300000190735,19258.800000190735,19639.699999809265,20220.800000190735,20537,20890,21235,21499,21855.099999904633,22213.099999904633,22517.099999904633,22878.199999809265,23221.300000190735,23560.300000190735,23934.199999809265,24294.400000095367,24607.400000095367,29367,33902.5,34746.5,35142.5,35436.699999809265,35739.699999809265,36310.699999809265,36791.800000190735,37127.199999809265,37543.90000009537,37910,38279,38543.90000009537,38859,39131.09999990463,39435.09999990463,39752.199999809265,40058.199999809265,40357.300000190735,40671.199999809265,41959.199999809265,43115.800000190735,44027.699999809265,44425.90000009537,44752.800000190735,45085.800000190735,45445.90000009537,45849.90000009537,46182.90000009537,46513.90000009537,46855.40000009537,47206.199999809265,47538.09999990463,47852.199999809265,48238.199999809265,48563.199999809265,48905.199999809265,49255.300000190735,49611.199999809265,49852.40000009537,50262.300000190735,83314.69999980927],"honeypot":0,"survey":"mace","page":9,"trial_type":"survey-mace","trial_index":17,"time_elapsed":1891298,"internal_node_id":"0.0-17.0","task_version":"prescreen-v0.3","browser_interactions":0},{"responses":{"01":"No","02":"No","03":"Yes","03_ages_12":"12","03_ages_13":"13","03_ages_14":"14","03_ages_15":"15","03_ages_16":"16","03_ages_17":"17","03_ages_18":"18","04":"Yes","04_ages_11":"11","04_ages_12":"12","04_ages_13":"13","04_ages_14":"14","04_ages_15":"15","04_ages_16":"16","04_ages_17":"17","04_ages_18":"18","05":"Yes","05_ages_4":"4","05_ages_5":"5","05_ages_6":"6","05_ages_7":"7","05_ages_8":"8","05_ages_9":"9","05_ages_10":"10","05_ages_11":"11","05_ages_12":"12","05_ages_13":"13","05_ages_14":"14","05_ages_15":"15","05_ages_16":"16","05_ages_17":"17","05_ages_18":"18","06":"Yes","06_ages_17":"17","07":"Yes","07_ages_4":"4","07_ages_5":"5","07_ages_6":"6","07_ages_7":"7","07_ages_8":"8","07_ages_9":"9","07_ages_10":"10","07_ages_11":"11","07_ages_12":"12","07_ages_13":"13","07_ages_14":"14","07_ages_15":"15","07_ages_16":"16","07_ages_17":"17","07_ages_18":"18","08":"No"},"rt":80078.40000009537,"item_order":[0,1,2,3,4,5,6,7],"radio_events":[5662.099999904633,6929.099999904633,10645.5,14694.800000190735,32126,43706.40000009537,54661.7000002861,59236.2000002861,76591.2000002861],"checkbox_events":[15837.099999904633,16151.200000286102,16698.300000190735,17035,17631.400000095367,18272.400000095367,18583.5,18921.5,19215.599999904633,19506.5,19779.599999904633,20135.599999904633,20434.700000286102,20785.700000286102,21092.800000190735,21383.800000190735,22325.099999904633,24286.099999904633,24642.099999904633,24968.200000286102,25350,25643.099999904633,25999.400000095367,26370.300000190735,33268.2000002861,33583.2000002861,33877.300000190735,34202.40000009537,35526.40000009537,36687.59999990463,36996.7000002861,37530.7000002861,37839.7000002861,38183.7000002861,38524.7000002861,38820.800000190735,39134.800000190735,39430.90000009537,39745,45647.7000002861,46372,47094.7000002861,47463.90000009537,47744.90000009537,49016.09999990463,50072.09999990463,56365.90000009537,66275,67393.2000002861,67822.2000002861,68149.2000002861,68540.30000019073,68817.40000009537,69130.40000009537,69449.59999990463,69731.40000009537,70011.40000009537,70330.5,70614.59999990463,71502.59999990463,71801.7000002861,72427.90000009537],"key_events":[],"mouse_events":[5662.099999904633,6929.099999904633,10645.5,14694.800000190735,15837.099999904633,16151.200000286102,16431.200000286102,16698.300000190735,17035,17365.300000190735,17631.400000095367,18272.400000095367,18583.5,18921.5,19215.599999904633,19506.5,19779.599999904633,20135.599999904633,20434.700000286102,20785.700000286102,21092.800000190735,21383.800000190735,22325.099999904633,24286.099999904633,24642.099999904633,24968.200000286102,25350,25643.099999904633,25999.400000095367,26370.300000190735,32126,33268.2000002861,33583.2000002861,33877.300000190735,34202.40000009537,34483.300000190735,34884.2000002861,35257.2000002861,35526.40000009537,36687.59999990463,36996.7000002861,37530.7000002861,37839.7000002861,38183.7000002861,38524.7000002861,38820.800000190735,39134.800000190735,39430.90000009537,39745,43706.40000009537,45647.7000002861,46094.09999990463,46372,46817.7000002861,47094.7000002861,47463.90000009537,47744.90000009537,48055.09999990463,48309.90000009537,48594.90000009537,49016.09999990463,49296,49815.90000009537,50072.09999990463,54291.59999990463,54661.7000002861,55810.90000009537,56365.90000009537,59236.2000002861,66275,66550.2000002861,66861,67113.09999990463,67393.2000002861,67822.2000002861,68149.2000002861,68540.30000019073,68817.40000009537,69130.40000009537,69449.59999990463,69731.40000009537,70011.40000009537,70330.5,70614.59999990463,70914.5,71204.59999990463,71502.59999990463,71801.7000002861,72142.7000002861,72427.90000009537,76591.2000002861,80076.09999990463],"honeypot":0,"survey":"mace","page":10,"trial_type":"survey-mace","trial_index":18,"time_elapsed":1971380,"internal_node_id":"0.0-18.0","task_version":"prescreen-v0.3","browser_interactions":0,"instructed":0},{"rt":8393.700000286102,"trial_type":"mental-health-alert","trial_index":19,"time_elapsed":1979775,"internal_node_id":"0.0-19.0","task_version":"prescreen-v0.3","interactions":"[{\"event\":\"blur\",\"trial\":2,\"time\":193830},{\"event\":\"focus\",\"trial\":2,\"time\":197516},{\"event\":\"blur\",\"trial\":2,\"time\":266083},{\"event\":\"focus\",\"trial\":2,\"time\":270196},{\"event\":\"blur\",\"trial\":13,\"time\":1461817},{\"event\":\"focus\",\"trial\":13,\"time\":1462091}]"}]