[{"view_history":[{"page_index":0,"viewing_time":2578.699999809265},{"page_index":1,"viewing_time":4634.200000047684},{"page_index":2,"viewing_time":3576.4000000953674},{"page_index":3,"viewing_time":1519.0999999046326}],"rt":12309.5,"trial_type":"instructions","trial_index":0,"time_elapsed":12341,"internal_node_id":"0.0-0.0","task_version":"prescreen-v0.3"},{"rt":15208,"responses":{"age":"20","gender-categorical":"Female","gender-free-response":"","ethnicity":"Hispanic or Latino","race":["White"],"education":"High school"},"trial_type":"survey-demo","trial_index":1,"time_elapsed":27558,"internal_node_id":"0.0-1.0","task_version":"prescreen-v0.3"},{"responses":{"Q16":"3","Q15":"2","Q10":"1","Q20":"0","Q04":"2","Q13":"3","Q14":"3","Q02":"2","Q21":"3","Q12":"1","Q09":"1","Q08":"2","Q05":"1","Q06":"2","Q17":"1","Q01":"2","Q19":"2","Q07":"0","Q11":"1","Q18":"1","Q03":"2"},"rt":122966.70000004768,"item_order":[15,14,9,19,3,12,13,1,20,11,8,7,4,5,16,0,18,6,10,17,2],"radio_events":[4978.200000047684,11234.200000047684,16097.600000143051,19451,26149.5,28696.10000014305,32953.5,41453,44806.799999952316,51015.10000014305,55464.5,61480.299999952316,70056.29999995232,77023.10000014305,83787.90000009537,87295.29999995232,95607,103169.29999995232,111038.90000009537,118927.60000014305,121944.29999995232],"key_events":[],"mouse_events":[4978.200000047684,11234.200000047684,16097.600000143051,19451,26149.5,28696.10000014305,32953.5,33722,41453,44806.799999952316,51015.10000014305,54148.200000047684,55464.5,57415.40000009537,59865.5,61480.299999952316,70056.29999995232,77023.10000014305,78099.40000009537,83787.90000009537,87295.29999995232,95607,101862.79999995232,103169.29999995232,111038.90000009537,118927.60000014305,121944.29999995232,122963.5],"straightlining":0.38095238095238093,"zigzagging":0.65,"honeypot":0,"survey":"sns","trial_type":"survey-template","trial_index":2,"time_elapsed":150536,"internal_node_id":"0.0-2.0","task_version":"prescreen-v0.3","browser_interactions":0,"infrequency":0},{"responses":{"Q12":"1","Q09":"2","Q10":"2","Q11":"2","Q06":"3","Q03":"3","Q07":"3","Q13":"0","Q02":"2","Q01":"3","Q04":"3","Q05":"3","Q08":"3"},"rt":94353.29999995232,"item_order":[11,8,9,10,5,2,6,12,1,0,3,4,7],"radio_events":[14596,31746.200000047684,44165.90000009537,51804.40000009537,56433.200000047684,63109.700000047684,64896.5,70189.79999995232,75329.59999990463,79374.29999995232,82160.59999990463,86560.29999995232,89816.79999995232,93294.5],"key_events":[],"mouse_events":[14596,31746.200000047684,44165.90000009537,51804.40000009537,56433.200000047684,63109.700000047684,64896.5,65607.20000004768,70189.79999995232,75329.59999990463,79374.29999995232,82160.59999990463,86560.29999995232,89816.79999995232,92132.29999995232,93294.5,94351.5],"straightlining":0.5384615384615384,"zigzagging":0.3333333333333333,"honeypot":0,"survey":"bisbas","trial_type":"survey-template","trial_index":3,"time_elapsed":244896,"internal_node_id":"0.0-3.0","task_version":"prescreen-v0.3","browser_interactions":0,"infrequency":0},{"responses":{"Q01":"3","Q02":"2","Q03":"2"},"rt":29292.400000095367,"radio_events":[11081.600000143051,23239.10000014305,28052.10000014305],"key_events":[],"mouse_events":[11081.600000143051,22047.800000190735,23239.10000014305,28052.10000014305,29291.400000095367],"survey":"map","page":1,"trial_type":"survey-map","trial_index":4,"time_elapsed":274195,"internal_node_id":"0.0-4.0","task_version":"prescreen-v0.3","browser_interactions":0},{"responses":{"Q04":"2","Q05":"2","Q06":"2"},"rt":17268.400000095367,"radio_events":[6055.800000190735,11205.100000143051,15999.100000143051],"key_events":[],"mouse_events":[6055.800000190735,11205.100000143051,15999.100000143051,17267.300000190735],"survey":"map","page":2,"trial_type":"survey-map","trial_index":5,"time_elapsed":291468,"internal_node_id":"0.0-5.0","task_version":"prescreen-v0.3","browser_interactions":0},{"responses":{"Q07":"3","Q08":"4","Q09":"2"},"rt":19450.200000047684,"radio_events":[9640.5,14357.599999904633,17922.200000047684],"key_events":[],"mouse_events":[8525.900000095367,9640.5,14357.599999904633,17922.200000047684,19449.400000095367],"survey":"map","page":3,"trial_type":"survey-map","trial_index":6,"time_elapsed":310922,"internal_node_id":"0.0-6.0","task_version":"prescreen-v0.3","browser_interactions":0},{"responses":{"Q10":"1","Q11":"0","Q12":"1","Q13":"0","Q16":"0","Q14":"1","Q15":"1"},"rt":67427.90000009537,"radio_events":[5450.600000143051,12300,20528.300000190735,31389.10000014305,41836.90000009537,49221.10000014305,50218.40000009537,56262.300000190735,61373.40000009537,62565],"key_events":[49221.10000014305,50218.40000009537],"mouse_events":[5450.600000143051,12300,13299.200000047684,20528.300000190735,21863.800000190735,31389.10000014305,41836.90000009537,51459.700000047684,56262.300000190735,61373.40000009537,62565,67426.30000019073],"survey":"map","page":4,"trial_type":"survey-map","trial_index":7,"time_elapsed":378357,"internal_node_id":"0.0-7.0","task_version":"prescreen-v0.3","browser_interactions":0,"infrequency":0},{"view_history":[{"page_index":0,"viewing_time":3357},{"page_index":1,"viewing_time":3122.4000000953674}],"rt":6480.5,"trial_type":"instructions","trial_index":8,"time_elapsed":384839,"internal_node_id":"0.0-8.0","task_version":"prescreen-v0.3"},{"responses":{"01":"No","02":"Yes","02_ages_15":"15","02_ages_16":"16","02_ages_17":"17","02_ages_18":"18","03":"No","04":"No","05":"No","06":"No"},"rt":50460.299999952316,"item_order":[0,1,2,3,4,5],"radio_events":[10929.599999904633,21046.099999904633,43191.89999985695,44978.89999985695,46727.299999952316,49244.39999985695],"checkbox_events":[30491.099999904633,32037.599999904633,33152.200000047684,34362.5],"key_events":[],"mouse_events":[0.09999990463256836,10929.599999904633,14272.200000047684,21046.099999904633,30491.099999904633,32037.599999904633,33152.200000047684,34362.5,38935.299999952316,39722.89999985695,43191.89999985695,44978.89999985695,46727.299999952316,49244.39999985695,50455.59999990463],"honeypot":0,"survey":"mace","page":1,"trial_type":"survey-mace","trial_index":9,"time_elapsed":435311,"internal_node_id":"0.0-9.0","task_version":"prescreen-v0.3","browser_interactions":0},{"responses":{"01":"No","02":"No","03":"Yes","03_ages_6":"6","03_ages_7":"7","03_ages_8":"8","03_ages_9":"9","03_ages_10":"10","03_ages_11":"11","04":"Yes","04_ages_6":"6","04_ages_7":"7","04_ages_8":"8","04_ages_9":"9","04_ages_10":"10","04_ages_11":"11","05":"Yes","05_ages_6":"6","05_ages_7":"7","05_ages_8":"8","05_ages_9":"9","05_ages_10":"10","05_ages_11":"11","06":"No","07":"No","08":"No"},"rt":69028.5,"item_order":[0,1,2,3,4,5,6,7],"radio_events":[3482.5999999046326,8382.399999856949,13868.099999904633,33005.09999990463,52719.39999985695,64583.89999985695,66457.09999990463,67782.70000004768],"checkbox_events":[19920.5,22678.099999904633,23639,25953.799999952316,27088.299999952316,28778.39999985695,34658,35772.299999952316,36771.5,38145.39999985695,39645.299999952316,40739.200000047684,41757.700000047684,42805,44276.299999952316,45803,54017,54823.39999985695,56159.200000047684,57388.799999952316,59483.09999990463,60424.299999952316],"key_events":[],"mouse_events":[3482.5999999046326,7517.599999904633,8382.399999856949,9439.099999904633,13868.099999904633,19920.5,22678.099999904633,23639,25953.799999952316,27088.299999952316,28778.39999985695,33005.09999990463,34658,35772.299999952316,36771.5,38145.39999985695,39645.299999952316,40739.200000047684,41757.700000047684,42805,44276.299999952316,45803,47531.39999985695,52719.39999985695,54017,54823.39999985695,56159.200000047684,57388.799999952316,59088.59999990463,59483.09999990463,60424.299999952316,61394.299999952316,64583.89999985695,66457.09999990463,67782.70000004768,69022.79999995232],"honeypot":0,"survey":"mace","page":2,"trial_type":"survey-mace","trial_index":10,"time_elapsed":504349,"internal_node_id":"0.0-10.0","task_version":"prescreen-v0.3","browser_interactions":0},{"responses":{"01":"No","02":"No","03":"No","04":"No"},"rt":18980.299999952316,"item_order":[0,1,2,3],"radio_events":[10908,13550.100000143051,16172.400000095367,17786.200000047684],"checkbox_events":[],"key_events":[],"mouse_events":[10908,13550.100000143051,16172.400000095367,17786.200000047684,18977.60000014305],"honeypot":0,"survey":"mace","page":3,"trial_type":"survey-mace","trial_index":11,"time_elapsed":523336,"internal_node_id":"0.0-11.0","task_version":"prescreen-v0.3","browser_interactions":0},{"responses":{"01":"Yes","01_ages_11":"11","02":"No"},"rt":19271,"item_order":[0,1],"radio_events":[9500.200000047684,18107.799999952316],"checkbox_events":[11171.600000143051,12112.900000095367,13899.700000047684],"key_events":[],"mouse_events":[9500.200000047684,11171.600000143051,12112.900000095367,13899.700000047684,18107.799999952316,19269.5],"honeypot":0,"survey":"mace","page":4,"trial_type":"survey-mace","trial_index":12,"time_elapsed":542612,"internal_node_id":"0.0-12.0","task_version":"prescreen-v0.3","browser_interactions":0},{"responses":{"01":"No","02":"No","03":"No","04":"No","05":"No"},"rt":37175,"item_order":[0,1,2,3,4],"radio_events":[21212.400000095367,27582.900000095367,28976.099999904633,33991.299999952316,36162.700000047684],"checkbox_events":[],"key_events":[],"mouse_events":[21212.400000095367,21932.900000095367,27582.900000095367,28976.099999904633,33991.299999952316,36162.700000047684,37171.40000009537],"honeypot":0,"survey":"mace","page":5,"trial_type":"survey-mace","trial_index":13,"time_elapsed":579794,"internal_node_id":"0.0-13.0","task_version":"prescreen-v0.3","browser_interactions":0},{"responses":{"01":"No","02":"Yes","02_ages_12":"12","02_ages_13":"13","02_ages_14":"14","02_ages_15":"15","02_ages_16":"16","03":"Yes","03_ages_12":"12","03_ages_13":"13","03_ages_14":"14","03_ages_15":"15","03_ages_16":"16","03_ages_17":"17","04":"No","05":"No"},"rt":81220.79999995232,"item_order":[0,1,2,3,4],"radio_events":[16720.199999809265,20284.39999985695,63588.09999990463,76384.5,79689.29999995232],"checkbox_events":[32211.5,33681.299999952316,34680.59999990463,47971.699999809265,58582.699999809265,65279.199999809265,66009.59999990463,66758.39999985695,67613.69999980927,68381.69999980927,69323.19999980927],"key_events":[],"mouse_events":[16720.199999809265,20284.39999985695,32211.5,33681.299999952316,34680.59999990463,47971.699999809265,58582.699999809265,59965.799999952316,63588.09999990463,65279.199999809265,66009.59999990463,66758.39999985695,67613.69999980927,68381.69999980927,69323.19999980927,71859.19999980927,76384.5,79689.29999995232,81217.09999990463],"honeypot":0,"survey":"mace","page":6,"trial_type":"survey-mace","trial_index":14,"time_elapsed":661023,"internal_node_id":"0.0-14.0","task_version":"prescreen-v0.3","browser_interactions":0},{"responses":{"01":"No","02":"No","03":"No","04":"No","05":"No","06":"No","07":"No"},"rt":19294,"item_order":[0,1,2,3,4,5,6],"radio_events":[4070.300000190735,6155,7894.600000143051,11928.800000190735,14522.700000047684,16328.800000190735,17789.10000014305],"checkbox_events":[],"key_events":[],"mouse_events":[4070.300000190735,6155,7894.600000143051,9315.400000095367,11928.800000190735,14522.700000047684,16328.800000190735,17789.10000014305,19288],"honeypot":0,"survey":"mace","page":7,"trial_type":"survey-mace","trial_index":15,"time_elapsed":680326,"internal_node_id":"0.0-15.0","task_version":"prescreen-v0.3","browser_interactions":0},{"responses":{"01":"Yes","01_ages_13":"13","01_ages_14":"14","01_ages_15":"15","01_ages_16":"16","01_ages_17":"17","01_ages_18":"18","02":"No","03":"Yes","03_ages_11":"11","03_ages_12":"12","03_ages_13":"13","03_ages_14":"14","03_ages_15":"15","03_ages_16":"16","03_ages_17":"17","03_ages_18":"18","04":"Yes","04_ages_10":"10","04_ages_11":"11","04_ages_12":"12","04_ages_13":"13","04_ages_14":"14","04_ages_15":"15","04_ages_16":"16","04_ages_17":"17"},"rt":86128.59999990463,"item_order":[0,1,2,3],"radio_events":[16390.5,35844.299999952316,40398.09999990463,59015.200000047684],"checkbox_events":[19407.099999904633,20684.799999952316,22030,22913.599999904633,23883.89999985695,25421.200000047684,44605.5,45585.299999952316,46344.700000047684,46594.299999952316,47545.59999990463,48515.39999985695,50129.700000047684,51167.299999952316,51945.299999952316,53261.5,60581,61503.299999952316,63722.299999952316,64942.299999952316,66133.79999995232,67287.5,68573.89999985695,69438.20000004768,70447,73674.79999995232,79774.89999985695,81840.39999985695],"key_events":[],"mouse_events":[16390.5,19407.099999904633,20684.799999952316,22030,22913.599999904633,23883.89999985695,25421.200000047684,27111.599999904633,35844.299999952316,36843.700000047684,40398.09999990463,42222.700000047684,44605.5,45585.299999952316,46344.700000047684,46594.299999952316,47545.59999990463,48515.39999985695,50129.700000047684,51167.299999952316,51945.299999952316,53261.5,59015.200000047684,60581,61503.299999952316,63308.700000047684,63722.299999952316,64942.299999952316,66133.79999995232,67287.5,68573.89999985695,69438.20000004768,70447,71215.39999985695,73674.79999995232,79774.89999985695,81840.39999985695,86125.09999990463],"honeypot":0,"survey":"mace","page":8,"trial_type":"survey-mace","trial_index":16,"time_elapsed":766462,"internal_node_id":"0.0-16.0","task_version":"prescreen-v0.3","browser_interactions":0},{"responses":{"01":"Yes","01_ages_1":"1","01_ages_2":"2","01_ages_3":"3","01_ages_4":"4","01_ages_5":"5","01_ages_6":"6","01_ages_7":"7","01_ages_8":"8","01_ages_9":"9","01_ages_10":"10","01_ages_11":"11","01_ages_16":"16","01_ages_17":"17","01_ages_18":"18","02":"Yes","02_ages_1":"1","02_ages_2":"2","02_ages_3":"3","02_ages_4":"4","02_ages_5":"5","02_ages_6":"6","02_ages_7":"7","02_ages_8":"8","02_ages_17":"17","02_ages_18":"18","03":"No","04":"Yes","04_ages_1":"1","04_ages_2":"2","04_ages_3":"3","04_ages_4":"4","04_ages_5":"5","04_ages_6":"6","04_ages_7":"7","04_ages_8":"8","04_ages_9":"9","04_ages_10":"10","04_ages_11":"11","04_ages_12":"12","04_ages_13":"13","04_ages_14":"14","04_ages_15":"15","04_ages_16":"16","04_ages_17":"17","04_ages_18":"18"},"rt":104838.20000004768,"item_order":[0,1,2,3],"radio_events":[5445.5,20737.800000190735,32534.200000047684,44340.40000009537],"checkbox_events":[10689.900000095367,11871.300000190735,13091.300000190735,22438.200000047684,23446.800000190735,49624.200000047684,50526.300000190735,51390.800000190735,52342,53101.10000014305,53879.40000009537,55079.90000009537,55925.200000047684,57567.60000014305,58758.40000009537,59987.90000009537,60794.800000190735,61804.200000047684,62879.200000047684,63666.800000190735,64474.300000190735,66568.30000019073,67989.70000004768,71572.40000009537,72446.5,73350,74127.5,74973.10000014305,76855.80000019073,77921.5,79227.90000009537,86057.10000014305,87421.70000004768,88391.20000004768,90033.70000004768,91455.70000004768,92253.30000019073,93088.5,93953.10000014305,95066.70000004768,96084.90000009537,97074.30000019073,98486.60000014305,99571.5],"key_events":[],"mouse_events":[5445.5,9614,10689.900000095367,11871.300000190735,13091.300000190735,13773.100000143051,20737.800000190735,22438.200000047684,23446.800000190735,24109.200000047684,32534.200000047684,35444.700000047684,44340.40000009537,49624.200000047684,50526.300000190735,51390.800000190735,52342,53101.10000014305,53879.40000009537,55079.90000009537,55925.200000047684,56712.5,57567.60000014305,58758.40000009537,59987.90000009537,60794.800000190735,61804.200000047684,62879.200000047684,63666.800000190735,64474.300000190735,66135.70000004768,66568.30000019073,67989.70000004768,71572.40000009537,72446.5,73350,74127.5,74973.10000014305,75770.40000009537,76855.80000019073,77921.5,79227.90000009537,86057.10000014305,87421.70000004768,88391.20000004768,90033.70000004768,91455.70000004768,92253.30000019073,93088.5,93953.10000014305,95066.70000004768,96084.90000009537,97074.30000019073,98486.60000014305,99571.5,102942.80000019073,104835.30000019073],"honeypot":0,"survey":"mace","page":9,"trial_type":"survey-mace","trial_index":17,"time_elapsed":871307,"internal_node_id":"0.0-17.0","task_version":"prescreen-v0.3","browser_interactions":0},{"responses":{"01":"No","02":"No","03":"Yes","03_ages_14":"14","03_ages_15":"15","03_ages_16":"16","03_ages_17":"17","03_ages_18":"18","04":"Yes","04_ages_14":"14","04_ages_15":"15","04_ages_16":"16","05":"No","06":"Yes","06_ages_17":"17","07":"Yes","07_ages_15":"15","07_ages_16":"16","07_ages_17":"17","07_ages_18":"18","08":"No"},"rt":60435.90000009537,"item_order":[0,1,2,3,4,5,6,7],"radio_events":[5455.700000047684,7001.700000047684,9114.700000047684,20084.10000014305,31505.300000190735,35414.700000047684,45538.800000190735,59265.10000014305],"checkbox_events":[10633,11593.5,12457.700000047684,13351.300000190735,14157.800000190735,21285.300000190735,22072.5,23004.800000190735,36932.300000190735,48228.800000190735,50130.300000190735,51167.60000014305,54136],"key_events":[],"mouse_events":[5455.700000047684,7001.700000047684,9114.700000047684,10633,11593.5,12457.700000047684,13351.300000190735,14157.800000190735,16741.200000047684,20084.10000014305,21285.300000190735,22072.5,23004.800000190735,25540.10000014305,31505.300000190735,35414.700000047684,36932.300000190735,37700.700000047684,45538.800000190735,48228.800000190735,49717.10000014305,50130.300000190735,51167.60000014305,52022.40000009537,54136,59265.10000014305,60427.60000014305],"honeypot":0,"survey":"mace","page":10,"trial_type":"survey-mace","trial_index":18,"time_elapsed":931752,"internal_node_id":"0.0-18.0","task_version":"prescreen-v0.3","browser_interactions":0,"instructed":0},{"rt":10203.700000047684,"trial_type":"mental-health-alert","trial_index":19,"time_elapsed":941961,"internal_node_id":"0.0-19.0","task_version":"prescreen-v0.3","interactions":"[]"}]