[{"view_history":[{"page_index":0,"viewing_time":10091},{"page_index":1,"viewing_time":2924},{"page_index":2,"viewing_time":3616},{"page_index":3,"viewing_time":906}],"rt":17538,"trial_type":"instructions","trial_index":0,"time_elapsed":17540,"internal_node_id":"0.0-0.0","task_version":"prescreen-v0.3"},{"rt":15857,"responses":{"age":"23","gender-categorical":"Other","gender-free-response":"nonbinary","ethnicity":"Not Hispanic or Latino","race":["White"],"education":"Bachelor degree"},"trial_type":"survey-demo","trial_index":1,"time_elapsed":33417,"internal_node_id":"0.0-1.0","task_version":"prescreen-v0.3"},{"responses":{"Q05":"1","Q09":"2","Q07":"0","Q10":"1","Q15":"2","Q06":"1","Q16":"1","Q11":"2","Q13":"2","Q14":"3","Q17":"1","Q01":"1","Q21":"3","Q18":"1","Q12":"3","Q19":"0","Q03":"0","Q02":"1","Q20":"0","Q04":"2","Q08":"1"},"rt":125904,"item_order":[4,8,6,9,14,5,15,10,12,13,16,0,20,17,11,18,2,1,19,3,7],"radio_events":[16700,21720,28079,34837,41609,45067,52584,58366,62210,65441,70441,73616,78989,86695,92005,93353,97649,99047,101291,108404,110705,117606,122075,122860,123428],"key_events":[],"mouse_events":[16700,21720,27613,28079,34837,40901,41197,41609,44651,45067,52584,58075,58366,62210,65128,65441,70441,73054,73616,78989,86308,86695,92005,93053,93353,97110,97649,98580,98818,99047,101028,101291,108404,110436,110705,117606,122075,122860,123428,125904],"straightlining":0.42857142857142855,"zigzagging":0.5,"honeypot":0,"survey":"sns","trial_type":"survey-template","trial_index":2,"time_elapsed":159326,"internal_node_id":"0.0-2.0","task_version":"prescreen-v0.3","browser_interactions":0,"infrequency":0},{"responses":{"Q11":"2","Q07":"3","Q12":"2","Q13":"0","Q04":"3","Q06":"3","Q08":"2","Q01":"3","Q05":"2","Q03":"2","Q02":"2","Q09":"1","Q10":"2"},"rt":66457,"item_order":[10,6,11,12,3,5,7,0,4,2,1,8,9],"radio_events":[9863,12507,13029,17164,20802,33705,34293,40157,43385,45372,48228,51791,53870,57899,60973,64170],"key_events":[],"mouse_events":[9863,11882,12507,13029,17164,19957,20802,32972,33705,34293,40157,43385,45372,47992,48228,51498,51791,53870,57899,60581,60973,63875,64170,66457],"straightlining":0.5384615384615384,"zigzagging":0.6666666666666666,"honeypot":0,"survey":"bisbas","trial_type":"survey-template","trial_index":3,"time_elapsed":225787,"internal_node_id":"0.0-3.0","task_version":"prescreen-v0.3","browser_interactions":0,"infrequency":0},{"responses":{"Q01":"3","Q02":"2","Q03":"2"},"rt":30831,"radio_events":[8704,14502,24072,29588],"key_events":[],"mouse_events":[8704,14502,24072,29588,30831],"survey":"map","page":1,"trial_type":"survey-map","trial_index":4,"time_elapsed":256622,"internal_node_id":"0.0-4.0","task_version":"prescreen-v0.3","browser_interactions":0},{"responses":{"Q04":"2","Q05":"2","Q06":"2"},"rt":15177,"radio_events":[7411,11492,13016],"key_events":[],"mouse_events":[7411,11171,11492,13016,15177],"survey":"map","page":2,"trial_type":"survey-map","trial_index":5,"time_elapsed":271802,"internal_node_id":"0.0-5.0","task_version":"prescreen-v0.3","browser_interactions":0},{"responses":{"Q07":"4","Q08":"0","Q09":"3"},"rt":15699,"radio_events":[4310,8744,14016],"key_events":[],"mouse_events":[4034,4310,4666,8744,9408,14016,15699],"survey":"map","page":3,"trial_type":"survey-map","trial_index":6,"time_elapsed":287503,"internal_node_id":"0.0-6.0","task_version":"prescreen-v0.3","browser_interactions":0},{"responses":{"Q10":"3","Q11":"1","Q12":"2","Q13":"1","Q16":"0","Q14":"3","Q15":"2"},"rt":62355,"radio_events":[5845,9392,11732,21009,27720,29317,39368,54679,55116,59413],"key_events":[],"mouse_events":[5467,5845,6239,9392,10717,11732,12291,18092,18488,20054,20366,20756,21009,21436,27720,29055,29317,30117,39368,40195,54388,54679,55116,57902,59155,59413,62355],"survey":"map","page":4,"trial_type":"survey-map","trial_index":7,"time_elapsed":349861,"internal_node_id":"0.0-7.0","task_version":"prescreen-v0.3","browser_interactions":0,"infrequency":0},{"view_history":[{"page_index":0,"viewing_time":2477},{"page_index":1,"viewing_time":5897}],"rt":8374,"trial_type":"instructions","trial_index":8,"time_elapsed":358236,"internal_node_id":"0.0-8.0","task_version":"prescreen-v0.3"},{"responses":{"01":"No","02":"No","03":"No","04":"Yes","04_ages_10":"10","04_ages_11":"11","05":"No","06":"No"},"rt":157163,"item_order":[0,1,2,3,4,5],"radio_events":[2908,40247,51579,73371,107390,117405,117940,138606,139665,149692],"checkbox_events":[11836,17321,20445,22576,25799,32879,41715,41913,42177,43780,55935,97246,99259,99645,99929,100291,100542,101517,102011,102311,102635,102956,152639,153385],"key_events":[],"mouse_events":[1,2908,11836,17321,20445,22576,25799,32879,40247,41376,41715,41913,42177,42445,43780,51579,55935,67313,73371,97246,98998,99259,99645,99929,100291,100542,101517,102011,102311,102635,102956,107390,117405,117940,138606,139665,140096,149692,152639,153385,157162],"honeypot":0,"survey":"mace","page":1,"trial_type":"survey-mace","trial_index":9,"time_elapsed":515407,"internal_node_id":"0.0-9.0","task_version":"prescreen-v0.3","browser_interactions":0},{"responses":{"01":"No","02":"No","03":"Yes","03_ages_9":"9","04":"No","05":"No","06":"Yes","06_ages_12":"12","06_ages_13":"13","06_ages_14":"14","07":"No","08":"No"},"rt":78953,"item_order":[0,1,2,3,4,5,6,7],"radio_events":[4381,7129,9321,15752,20062,29122,30595,44973],"checkbox_events":[12075,47536,48044,49885,50540,77455],"key_events":[],"mouse_events":[3972,4381,7129,9321,11784,12075,15752,20062,29122,30595,44973,47536,48044,49885,50540,77455,78953],"honeypot":0,"survey":"mace","page":2,"trial_type":"survey-mace","trial_index":10,"time_elapsed":594370,"internal_node_id":"0.0-10.0","task_version":"prescreen-v0.3","browser_interactions":0},{"responses":{"01":"No","02":"No","03":"No","04":"No"},"rt":31076,"item_order":[0,1,2,3],"radio_events":[26046,26880,28650,29155],"checkbox_events":[],"key_events":[],"mouse_events":[26046,26492,26880,28183,28650,28940,29155,31076],"honeypot":0,"survey":"mace","page":3,"trial_type":"survey-mace","trial_index":11,"time_elapsed":625451,"internal_node_id":"0.0-11.0","task_version":"prescreen-v0.3","browser_interactions":2},{"responses":{"01":"No","02":"No"},"rt":23713,"item_order":[0,1],"radio_events":[3217,5042],"checkbox_events":[],"key_events":[],"mouse_events":[3217,4484,5042,23713],"honeypot":0,"survey":"mace","page":4,"trial_type":"survey-mace","trial_index":12,"time_elapsed":649168,"internal_node_id":"0.0-12.0","task_version":"prescreen-v0.3","browser_interactions":0},{"responses":{"01":"No","02":"No","03":"No","04":"No","05":"No"},"rt":43730,"item_order":[0,1,2,3,4],"radio_events":[20739,24817,32286,33615,37868],"checkbox_events":[],"key_events":[],"mouse_events":[20739,24817,32286,33615,37596,37868,43730],"honeypot":0,"survey":"mace","page":5,"trial_type":"survey-mace","trial_index":13,"time_elapsed":692903,"internal_node_id":"0.0-13.0","task_version":"prescreen-v0.3","browser_interactions":0},{"responses":{"01":"Yes","01_ages_10":"10","01_ages_11":"11","01_ages_12":"12","01_ages_13":"13","02":"Yes","02_ages_10":"10","02_ages_11":"11","02_ages_12":"12","02_ages_13":"13","03":"No","04":"Yes","04_ages_10":"10","04_ages_11":"11","04_ages_12":"12","04_ages_13":"13","04_ages_14":"14","05":"Yes","05_ages_9":"9"},"rt":80970,"item_order":[0,1,2,3,4],"radio_events":[4270,19516,28277,52822,53705,57162,75123],"checkbox_events":[14323,14911,16751,17218,20298,20775,21316,21586,42051,42455,48918,49895,51574,51989,57988,58272,59118,59856,66601,76546],"key_events":[],"mouse_events":[4270,14323,14911,16751,17218,19516,20298,20529,20775,21076,21316,21586,28277,42051,42455,48918,49895,51574,51989,52822,53398,53705,57162,57988,58272,58540,58780,59118,59404,59856,66601,75123,76546,80970],"honeypot":0,"survey":"mace","page":6,"trial_type":"survey-mace","trial_index":14,"time_elapsed":773881,"internal_node_id":"0.0-14.0","task_version":"prescreen-v0.3","browser_interactions":0},{"responses":{"01":"No","02":"No","03":"No","04":"Yes","04_ages_9":"9","05":"No","06":"No","07":"No"},"rt":28234,"item_order":[0,1,2,3,4,5,6],"radio_events":[7525,13754,15315,17330,24198,25513,26318],"checkbox_events":[18951],"key_events":[],"mouse_events":[7525,13754,15315,17330,18521,18951,23751,24198,25513,26318,28234],"honeypot":0,"survey":"mace","page":7,"trial_type":"survey-mace","trial_index":15,"time_elapsed":802123,"internal_node_id":"0.0-15.0","task_version":"prescreen-v0.3","browser_interactions":0},{"responses":{"01":"Yes","01_ages_10":"10","01_ages_11":"11","01_ages_12":"12","01_ages_13":"13","02":"Yes","02_ages_12":"12","02_ages_13":"13","02_ages_14":"14","03":"No","04":"No"},"rt":165584,"item_order":[0,1,2,3],"radio_events":[44200,46056,65402,103903,159086],"checkbox_events":[70945,73599,74649,75078,105415,107447,120277,151568,152093],"key_events":[],"mouse_events":[44200,46056,46763,65402,70945,73599,74649,75078,103903,105415,107447,120277,151568,152093,159086,165584],"honeypot":0,"survey":"mace","page":8,"trial_type":"survey-mace","trial_index":16,"time_elapsed":967716,"internal_node_id":"0.0-16.0","task_version":"prescreen-v0.3","browser_interactions":0},{"responses":{"01":"Yes","01_ages_1":"1","01_ages_2":"2","01_ages_3":"3","01_ages_4":"4","01_ages_5":"5","01_ages_6":"6","01_ages_7":"7","01_ages_8":"8","01_ages_9":"9","01_ages_10":"10","01_ages_11":"11","01_ages_12":"12","01_ages_13":"13","01_ages_14":"14","01_ages_15":"15","01_ages_16":"16","01_ages_17":"17","01_ages_18":"18","02":"Yes","02_ages_16":"16","02_ages_17":"17","02_ages_18":"18","03":"Yes","03_ages_1":"1","03_ages_2":"2","03_ages_3":"3","03_ages_4":"4","03_ages_5":"5","03_ages_6":"6","03_ages_7":"7","03_ages_8":"8","03_ages_9":"9","03_ages_10":"10","03_ages_11":"11","03_ages_12":"12","03_ages_13":"13","03_ages_14":"14","03_ages_15":"15","03_ages_16":"16","03_ages_17":"17","03_ages_18":"18","04":"Yes","04_ages_1":"1","04_ages_2":"2","04_ages_3":"3","04_ages_4":"4","04_ages_5":"5","04_ages_6":"6","04_ages_7":"7","04_ages_8":"8","04_ages_9":"9","04_ages_10":"10","04_ages_11":"11","04_ages_12":"12","04_ages_13":"13","04_ages_14":"14","04_ages_15":"15","04_ages_16":"16","04_ages_17":"17","04_ages_18":"18"},"rt":91032,"item_order":[0,1,2,3],"radio_events":[4887,34179,49160,82490],"checkbox_events":[9891,10512,11121,11516,11774,12085,12356,13276,15025,20929,36565,36986,37405,37824,39380,39883,40186,40483,40821,41132,41458,42033,42267,42864,43105,43617,43904,44191,52389,53149,53450,54117,54417,55096,55299,55922,56503,57045,57721,57968,58814,59054,59336,60198,60433,60780,72313,72607,72951,73225,73556,73855,74120,74371,85344,85681,86044],"key_events":[],"mouse_events":[4887,9891,10512,11121,11516,11774,12085,12356,13276,15025,20929,34179,36565,36986,37405,37824,39380,39631,39883,40186,40483,40821,41132,41458,41711,42033,42267,42660,42864,43105,43374,43617,43904,44191,49160,50818,52389,53149,53450,53805,54117,54417,54739,55096,55299,55600,55922,56186,56503,56881,57045,57721,57968,58466,58814,59054,59336,59884,60198,60433,60780,72313,72607,72951,73225,73556,73855,74120,74371,74992,82490,85344,85681,86044,91032],"honeypot":0,"survey":"mace","page":9,"trial_type":"survey-mace","trial_index":17,"time_elapsed":1058757,"internal_node_id":"0.0-17.0","task_version":"prescreen-v0.3","browser_interactions":0},{"responses":{"01":"No","02":"No","03":"Yes","03_ages_10":"10","03_ages_11":"11","03_ages_12":"12","03_ages_13":"13","03_ages_14":"14","03_ages_15":"15","03_ages_16":"16","03_ages_17":"17","03_ages_18":"18","04":"Yes","04_ages_8":"8","04_ages_9":"9","04_ages_10":"10","04_ages_11":"11","04_ages_12":"12","04_ages_13":"13","04_ages_14":"14","04_ages_15":"15","04_ages_16":"16","04_ages_17":"17","04_ages_18":"18","05":"Yes","05_ages_10":"10","05_ages_11":"11","05_ages_12":"12","05_ages_13":"13","05_ages_14":"14","05_ages_15":"15","05_ages_16":"16","06":"Yes","06_ages_17":"17","07":"Yes","07_ages_1":"1","07_ages_2":"2","07_ages_3":"3","07_ages_4":"4","07_ages_5":"5","07_ages_6":"6","07_ages_7":"7","07_ages_8":"8","07_ages_9":"9","07_ages_10":"10","07_ages_11":"11","07_ages_12":"12","07_ages_13":"13","07_ages_14":"14","07_ages_15":"15","07_ages_16":"16","07_ages_17":"17","07_ages_18":"18","08":"Yes","08_ages_1":"1","08_ages_2":"2","08_ages_3":"3","08_ages_4":"4","08_ages_5":"5","08_ages_6":"6","08_ages_7":"7","08_ages_15":"15","08_ages_16":"16","08_ages_17":"17","08_ages_18":"18"},"rt":190294,"item_order":[0,1,2,3,4,5,6,7],"radio_events":[5890,20936,35078,45065,49586,52996,55087,72932,95998,129248,153583],"checkbox_events":[10399,10754,11177,11433,12328,12635,13203,14912,15126,22003,22246,22569,22897,23264,23576,23857,24239,24568,24926,25234,36361,112160,116332,117740,118418,119120,119852,120156,130519,130837,131247,132283,136095,136423,136694,136990,137293,137581,139234,161796,162639,163147,163970,168930,170499,170707,172747,173040,181459,182612,182850,183162,183750,184080,184436,184728,185028],"key_events":[],"mouse_events":[5890,10399,10754,11177,11433,11746,12328,12635,12936,13203,13672,14379,14912,15126,15645,20636,20936,22003,22246,22569,22897,23264,23576,23857,24239,24568,24926,25234,25744,35078,36361,45065,49586,52996,54662,55087,72932,95998,112160,116332,117740,118418,118756,119120,119852,120156,129248,130519,130837,131247,132283,136095,136423,136694,136990,137293,137581,139234,149247,153583,161796,162639,163147,163519,163970,168930,169303,170185,170499,170707,172434,172747,173040,181459,182133,182367,182612,182850,183162,183445,183750,184080,184436,184728,185028,190294],"honeypot":0,"survey":"mace","page":10,"trial_type":"survey-mace","trial_index":18,"time_elapsed":1249061,"internal_node_id":"0.0-18.0","task_version":"prescreen-v0.3","browser_interactions":0,"instructed":0},{"rt":28857,"trial_type":"mental-health-alert","trial_index":19,"time_elapsed":1277921,"internal_node_id":"0.0-19.0","task_version":"prescreen-v0.3","interactions":"[{\"event\":\"focus\",\"trial\":0,\"time\":1},{\"event\":\"blur\",\"trial\":11,\"time\":597324},{\"event\":\"focus\",\"trial\":11,\"time\":599525}]"}]