[{"view_history":[{"page_index":0,"viewing_time":2696.7000000178814},{"page_index":1,"viewing_time":1512},{"page_index":2,"viewing_time":2107.2999999821186},{"page_index":3,"viewing_time":1088.5}],"rt":7405.4000000059605,"trial_type":"instructions","trial_index":0,"time_elapsed":7425,"internal_node_id":"0.0-0.0","task_version":"prescreen-v0.3"},{"rt":11207.300000011921,"responses":{"age":"28","gender-categorical":"Female","gender-free-response":"","ethnicity":"Not Hispanic or Latino","race":["White"],"education":"Bachelor degree"},"trial_type":"survey-demo","trial_index":1,"time_elapsed":18638,"internal_node_id":"0.0-1.0","task_version":"prescreen-v0.3"},{"responses":{"Q05":"1","Q19":"1","Q13":"2","Q21":"2","Q01":"2","Q11":"0","Q15":"3","Q14":"2","Q03":"1","Q12":"1","Q09":"0","Q06":"1","Q02":"2","Q07":"1","Q20":"3","Q10":"0","Q08":"2","Q04":"2","Q16":"2","Q18":"2","Q17":"2"},"rt":72363.59999999404,"item_order":[4,18,12,20,0,10,14,13,2,11,8,5,1,6,19,9,7,3,15,17,16],"radio_events":[8916.59999999404,11941.200000017881,15309.200000017881,17637.70000001788,19513,22084.20000001788,26348.20000001788,29766.80000001192,31611.20000001788,34383.59999999404,37034.90000000596,41390.40000000596,44627.09999999404,45573.09999999404,49213.59999999404,52076.5,55171.5,58357.20000001788,63479.5,66462.5,69497.90000000596,71534.5],"key_events":[],"mouse_events":[8916.59999999404,11941.200000017881,13897.300000011921,15309.200000017881,17637.70000001788,19513,21106.40000000596,22084.20000001788,25642.5,26348.20000001788,29766.80000001192,31611.20000001788,34383.59999999404,36450.09999999404,37034.90000000596,41390.40000000596,43829.90000000596,44627.09999999404,45573.09999999404,49213.59999999404,52076.5,55171.5,58357.20000001788,63479.5,66462.5,69497.90000000596,71534.5,72361.59999999404],"straightlining":0.47619047619047616,"zigzagging":0.45,"honeypot":0,"survey":"sns","trial_type":"survey-template","trial_index":2,"time_elapsed":91020,"internal_node_id":"0.0-2.0","task_version":"prescreen-v0.3","browser_interactions":0,"infrequency":0.5},{"responses":{"Q04":"3","Q07":"3","Q13":"0","Q09":"1","Q02":"2","Q01":"2","Q11":"2","Q08":"2","Q05":"3","Q12":"1","Q03":"3","Q10":"1","Q06":"2"},"rt":36300.90000000596,"item_order":[3,6,12,8,1,0,10,7,4,11,2,9,5],"radio_events":[2997.9000000059605,4339,6879.800000011921,14360.800000011921,15933.300000011921,17012.30000001192,20450.59999999404,23121.59999999404,24684.59999999404,28062.69999998808,30613.40000000596,33436.09999999404,35593.40000000596],"key_events":[],"mouse_events":[2997.9000000059605,4339,6879.800000011921,14360.800000011921,15933.300000011921,17012.30000001192,19553.40000000596,20127.5,20450.59999999404,23121.59999999404,24684.59999999404,28062.69999998808,30613.40000000596,33436.09999999404,35593.40000000596,36299.80000001192],"straightlining":0.38461538461538464,"zigzagging":0.4166666666666667,"honeypot":0,"survey":"bisbas","trial_type":"survey-template","trial_index":3,"time_elapsed":127335,"internal_node_id":"0.0-3.0","task_version":"prescreen-v0.3","browser_interactions":0,"infrequency":0},{"responses":{"Q01":"3","Q02":"3","Q03":"3"},"rt":12428.09999999404,"radio_events":[4321,7798.9000000059605,11329.299999982119],"key_events":[],"mouse_events":[4321,7798.9000000059605,10682.40000000596,11329.299999982119,12427.40000000596],"survey":"map","page":1,"trial_type":"survey-map","trial_index":4,"time_elapsed":139766,"internal_node_id":"0.0-4.0","task_version":"prescreen-v0.3","browser_interactions":0},{"responses":{"Q04":"3","Q05":"2","Q06":"2"},"rt":9758,"radio_events":[3504.800000011921,5562.800000011921,8617.300000011921],"key_events":[],"mouse_events":[3504.800000011921,5562.800000011921,8617.300000011921,9757.40000000596],"survey":"map","page":2,"trial_type":"survey-map","trial_index":5,"time_elapsed":149527,"internal_node_id":"0.0-5.0","task_version":"prescreen-v0.3","browser_interactions":0},{"responses":{"Q07":"0","Q08":"2","Q09":"2"},"rt":13044.899999976158,"radio_events":[5169.399999976158,9111.899999976158,11986],"key_events":[],"mouse_events":[5169.399999976158,9111.899999976158,11159.199999988079,11986,13044.5],"survey":"map","page":3,"trial_type":"survey-map","trial_index":6,"time_elapsed":162574,"internal_node_id":"0.0-6.0","task_version":"prescreen-v0.3","browser_interactions":0},{"responses":{"Q10":"2","Q11":"1","Q12":"2","Q13":"1","Q16":"0","Q14":"2","Q15":"3"},"rt":65818,"radio_events":[7006.0999999940395,9819.399999976158,13792.699999988079,54823.5,59019.79999998212,62630.79999998212,65080.89999997616],"key_events":[],"mouse_events":[7006.0999999940395,9346.199999988079,9819.399999976158,13792.699999988079,54823.5,59019.79999998212,62630.79999998212,65080.89999997616,65817.09999999404],"survey":"map","page":4,"trial_type":"survey-map","trial_index":7,"time_elapsed":228405,"internal_node_id":"0.0-7.0","task_version":"prescreen-v0.3","browser_interactions":0,"infrequency":0},{"view_history":[{"page_index":0,"viewing_time":2286.699999988079},{"page_index":1,"viewing_time":3045.800000011921}],"rt":5332.9000000059605,"trial_type":"instructions","trial_index":8,"time_elapsed":233751,"internal_node_id":"0.0-8.0","task_version":"prescreen-v0.3"},{"responses":{"01":"No","02":"Yes","02_ages_4":"4","02_ages_5":"5","02_ages_6":"6","02_ages_7":"7","02_ages_8":"8","02_ages_9":"9","02_ages_10":"10","02_ages_11":"11","02_ages_12":"12","02_ages_13":"13","02_ages_14":"14","02_ages_15":"15","02_ages_16":"16","02_ages_17":"17","02_ages_18":"18","03":"No","04":"No","05":"No","06":"Yes","06_ages_15":"15"},"rt":58679.19999998808,"item_order":[0,1,2,3,4,5],"radio_events":[8356.59999999404,14791.199999988079,17292.40000000596,47601.69999998808,49013.79999998212,50405.69999998808,55660.59999999404],"checkbox_events":[19491.09999999404,20035.79999998212,20573.40000000596,20580.09999999404,21559.19999998808,22022.59999999404,22627.09999999404,23192.79999998212,23686.79999998212,24200.59999999404,24745.79999998212,25311.59999999404,25844.90000000596,26491.29999998212,27196.40000000596,27792.19999998808,28367.29999998212,57799],"key_events":[],"mouse_events":[0.09999999403953552,8356.59999999404,14791.199999988079,17292.40000000596,19491.09999999404,20035.79999998212,20573.40000000596,20580.09999999404,21559.19999998808,22022.59999999404,22627.09999999404,23192.79999998212,23686.79999998212,24200.59999999404,24745.79999998212,25311.59999999404,25844.90000000596,26491.29999998212,27196.40000000596,27792.19999998808,28367.29999998212,47601.69999998808,49013.79999998212,50405.69999998808,55660.59999999404,57799,58676.59999999404],"honeypot":0,"survey":"mace","page":1,"trial_type":"survey-mace","trial_index":9,"time_elapsed":292437,"internal_node_id":"0.0-9.0","task_version":"prescreen-v0.3","browser_interactions":0},{"responses":{"01":"Yes","01_ages_6":"6","01_ages_7":"7","01_ages_8":"8","01_ages_9":"9","01_ages_15":"15","02":"No","03":"Yes","03_ages_1":"1","03_ages_2":"2","03_ages_3":"3","03_ages_4":"4","03_ages_5":"5","03_ages_6":"6","03_ages_7":"7","03_ages_8":"8","03_ages_9":"9","04":"Yes","04_ages_1":"1","04_ages_2":"2","04_ages_3":"3","04_ages_4":"4","04_ages_5":"5","04_ages_6":"6","04_ages_7":"7","04_ages_8":"8","04_ages_9":"9","05":"Yes","05_ages_1":"1","05_ages_2":"2","05_ages_3":"3","05_ages_4":"4","05_ages_5":"5","05_ages_6":"6","05_ages_7":"7","05_ages_8":"8","05_ages_9":"9","06":"No","07":"No","08":"No"},"rt":61042.79999998212,"item_order":[0,1,2,3,4,5,6,7],"radio_events":[6387.299999982119,21143.40000000596,22142.40000000596,32299.69999998808,40712.69999998808,49710.5,56368.09999999404,57508.40000000596,60333],"checkbox_events":[11068,11582.299999982119,12297.299999982119,12832.90000000596,14618.09999999404,24119.40000000596,24623.69999998808,25057.19999998808,25591.79999998212,27439,28094.90000000596,28629.29999998212,30323.69999998808,31271.59999999404,34630.29999998212,35175.69999998808,35922.19999998808,36436.59999999404,37111.90000000596,37545.69999998808,38121,38544.19999998808,39160.19999998808,41943.59999999404,43084.40000000596,43507.5,44526.90000000596,44949.69999998808,45535,46574.5,46957.69999998808,47683.90000000596,51112.79999998212,55722.5],"key_events":[],"mouse_events":[6387.299999982119,11068,11582.299999982119,12297.299999982119,12832.90000000596,14618.09999999404,18671.79999998212,21143.40000000596,22142.40000000596,24119.40000000596,24623.69999998808,25057.19999998808,25591.79999998212,26107,26853.59999999404,27439,28094.90000000596,28629.29999998212,30323.69999998808,31271.59999999404,32299.69999998808,34630.29999998212,35175.69999998808,35922.19999998808,36436.59999999404,37111.90000000596,37545.69999998808,38121,38544.19999998808,39160.19999998808,40712.69999998808,41943.59999999404,42427.79999998212,43084.40000000596,43507.5,44112.19999998808,44526.90000000596,44949.69999998808,45535,46574.5,46957.69999998808,47683.90000000596,49710.5,51112.79999998212,54209.79999998212,55107.69999998808,55722.5,56368.09999999404,57508.40000000596,58971.09999999404,59486,60333,61038.69999998808],"honeypot":0,"survey":"mace","page":2,"trial_type":"survey-mace","trial_index":10,"time_elapsed":353494,"internal_node_id":"0.0-10.0","task_version":"prescreen-v0.3","browser_interactions":0},{"responses":{"01":"Yes","01_ages_10":"10","02":"No","03":"No","04":"No"},"rt":14428.800000011921,"item_order":[0,1,2,3],"radio_events":[4047.300000011921,11612.5,12903.199999988079,13811.699999988079],"checkbox_events":[7425.9000000059605],"key_events":[],"mouse_events":[4047.300000011921,7425.9000000059605,11612.5,12903.199999988079,13811.699999988079,14427],"honeypot":0,"survey":"mace","page":3,"trial_type":"survey-mace","trial_index":11,"time_elapsed":367938,"internal_node_id":"0.0-11.0","task_version":"prescreen-v0.3","browser_interactions":0},{"responses":{"01":"No","02":"No"},"rt":10346.299999982119,"item_order":[0,1],"radio_events":[7793.0999999940395,9387],"checkbox_events":[],"key_events":[],"mouse_events":[7793.0999999940395,9387,10345.299999982119],"honeypot":0,"survey":"mace","page":4,"trial_type":"survey-mace","trial_index":12,"time_elapsed":378287,"internal_node_id":"0.0-12.0","task_version":"prescreen-v0.3","browser_interactions":0},{"responses":{"01":"No","02":"No","03":"No","04":"No","05":"No"},"rt":15119.59999999404,"item_order":[0,1,2,3,4],"radio_events":[5332.199999988079,7985.199999988079,10426.699999988079,11848.899999976158,13735.699999988079],"checkbox_events":[],"key_events":[],"mouse_events":[5332.199999988079,7985.199999988079,10426.699999988079,11848.899999976158,13735.699999988079,15117.299999982119],"honeypot":0,"survey":"mace","page":5,"trial_type":"survey-mace","trial_index":13,"time_elapsed":393410,"internal_node_id":"0.0-13.0","task_version":"prescreen-v0.3","browser_interactions":0},{"responses":{"01":"No","02":"Yes","02_ages_10":"10","02_ages_11":"11","02_ages_12":"12","02_ages_13":"13","02_ages_14":"14","02_ages_15":"15","02_ages_16":"16","02_ages_17":"17","02_ages_18":"18","03":"Yes","03_ages_16":"16","03_ages_17":"17","04":"No","05":"No"},"rt":28544.40000000596,"item_order":[0,1,2,3,4],"radio_events":[5260,8791.40000000596,10787.100000023842,20462.40000000596,26372.80000001192,27896.30000001192],"checkbox_events":[12492.5,13279.40000000596,13733.40000000596,14389.700000017881,14974.700000017881,15650.200000017881,16276,16750.600000023842,17819.20000001788,22399.5,23126],"key_events":[],"mouse_events":[5260,8791.40000000596,10787.100000023842,12492.5,13279.40000000596,13733.40000000596,14389.700000017881,14974.700000017881,15650.200000017881,16276,16750.600000023842,17819.20000001788,20462.40000000596,22399.5,23126,26372.80000001192,27896.30000001192,28542.20000001788],"honeypot":0,"survey":"mace","page":6,"trial_type":"survey-mace","trial_index":14,"time_elapsed":421969,"internal_node_id":"0.0-14.0","task_version":"prescreen-v0.3","browser_interactions":0},{"responses":{"01":"No","02":"No","03":"No","04":"No","05":"No","06":"Yes","06_ages_16":"16","07":"Yes","07_ages_16":"16"},"rt":18003.90000000596,"item_order":[0,1,2,3,4,5,6],"radio_events":[2869.0999999940395,4533.799999982119,6087.299999982119,7167,9386.199999988079,10667.40000000596,14903.799999982119],"checkbox_events":[11978.699999988079,17173.59999999404],"key_events":[],"mouse_events":[2869.0999999940395,4533.799999982119,6087.299999982119,7167,8326.799999982119,9386.199999988079,10667.40000000596,11978.699999988079,14903.799999982119,17173.59999999404,18000.90000000596],"honeypot":0,"survey":"mace","page":7,"trial_type":"survey-mace","trial_index":15,"time_elapsed":439977,"internal_node_id":"0.0-15.0","task_version":"prescreen-v0.3","browser_interactions":0},{"responses":{"01":"No","02":"No","03":"Yes","03_ages_1":"1","03_ages_2":"2","03_ages_3":"3","03_ages_4":"4","03_ages_5":"5","03_ages_6":"6","03_ages_7":"7","03_ages_8":"8","03_ages_9":"9","03_ages_10":"10","03_ages_11":"11","03_ages_12":"12","03_ages_13":"13","03_ages_14":"14","03_ages_15":"15","03_ages_16":"16","03_ages_17":"17","03_ages_18":"18","04":"No"},"rt":34719.79999998212,"item_order":[0,1,2,3],"radio_events":[6308.699999988079,12311.09999999404,13229.40000000596,31035.69999998808,33981.29999998212],"checkbox_events":[16517.69999998808,17528,18132.69999998808,18697.79999998212,19151.79999998212,19695.59999999404,20261,20896.59999999404,21472.19999998808,22026.19999998808,22571.79999998212,23096,25758.5,26476.5,26899.79999998212,27403.5,27999.29999998212,28523.40000000596],"key_events":[],"mouse_events":[6308.699999988079,10182.699999988079,12311.09999999404,13229.40000000596,16517.69999998808,17174.59999999404,17528,18132.69999998808,18697.79999998212,19151.79999998212,19695.59999999404,20261,20896.59999999404,21472.19999998808,22026.19999998808,22571.79999998212,23096,25758.5,26476.5,26899.79999998212,27403.5,27999.29999998212,28523.40000000596,31035.69999998808,33981.29999998212,34718],"honeypot":0,"survey":"mace","page":8,"trial_type":"survey-mace","trial_index":16,"time_elapsed":474700,"internal_node_id":"0.0-16.0","task_version":"prescreen-v0.3","browser_interactions":0},{"responses":{"01":"Yes","01_ages_3":"3","01_ages_4":"4","01_ages_5":"5","01_ages_6":"6","01_ages_7":"7","01_ages_8":"8","01_ages_9":"9","01_ages_10":"10","01_ages_11":"11","01_ages_12":"12","01_ages_13":"13","01_ages_14":"14","01_ages_15":"15","01_ages_16":"16","01_ages_17":"17","01_ages_18":"18","02":"Yes","02_ages_5":"5","02_ages_6":"6","02_ages_7":"7","02_ages_8":"8","02_ages_9":"9","02_ages_10":"10","02_ages_11":"11","02_ages_12":"12","02_ages_13":"13","02_ages_14":"14","02_ages_15":"15","02_ages_16":"16","02_ages_17":"17","02_ages_18":"18","03":"No","04":"Yes","04_ages_1":"1","04_ages_2":"2","04_ages_3":"3","04_ages_4":"4","04_ages_5":"5","04_ages_6":"6","04_ages_7":"7","04_ages_8":"8","04_ages_9":"9","04_ages_10":"10","04_ages_11":"11","04_ages_12":"12","04_ages_13":"13","04_ages_14":"14","04_ages_15":"15","04_ages_16":"16","04_ages_17":"17","04_ages_18":"18"},"rt":48057.5,"item_order":[0,1,2,3],"radio_events":[3192.300000011921,19856.90000000596,32337.30000001192,35262.60000002384],"checkbox_events":[6673.200000017881,7167.600000023842,7611.800000011921,8337.5,8993.700000017881,9870.5,10678.100000023842,12262.200000017881,12745.700000017881,14017,14571.5,15358.40000000596,15894.200000017881,16509.30000001192,17104.30000001192,17648.600000023842,21472.70000001788,21976.90000000596,22541.600000023842,23086.20000001788,23609.80000001192,24114.90000000596,24629.70000001788,25143.90000000596,25689,26233.80000001192,26688.20000001788,27807.20000001788,28584.5,29079.30000001192,36817,37299.80000001192,37765.30000001192,38240,39116.90000000596,39620.40000000596,40146,40700.80000001192,41225.10000002384,41749.30000001192,42223.80000001192,42799.5,43333.90000000596,43887.60000002384,44412.60000002384,45362,45755.5,47066.90000000596],"key_events":[],"mouse_events":[3192.300000011921,6673.200000017881,7167.600000023842,7611.800000011921,8337.5,8993.700000017881,9870.5,10678.100000023842,11292.90000000596,12262.200000017881,12745.700000017881,13493,14017,14571.5,15358.40000000596,15894.200000017881,16509.30000001192,17104.30000001192,17648.600000023842,19856.90000000596,21472.70000001788,21976.90000000596,22541.600000023842,23086.20000001788,23609.80000001192,24114.90000000596,24629.70000001788,25143.90000000596,25689,26233.80000001192,26688.20000001788,27323.100000023842,27807.20000001788,28231.30000001192,28584.5,29079.30000001192,32337.30000001192,35262.60000002384,36473.80000001192,36817,37299.80000001192,37765.30000001192,38240,39116.90000000596,39620.40000000596,40146,40700.80000001192,41225.10000002384,41749.30000001192,42223.80000001192,42799.5,43333.90000000596,43887.60000002384,44412.60000002384,45362,45755.5,46471.10000002384,47066.90000000596,48055.20000001788],"honeypot":0,"survey":"mace","page":9,"trial_type":"survey-mace","trial_index":17,"time_elapsed":522771,"internal_node_id":"0.0-17.0","task_version":"prescreen-v0.3","browser_interactions":0},{"responses":{"01":"Yes","01_ages_1":"1","01_ages_2":"2","01_ages_3":"3","01_ages_4":"4","01_ages_5":"5","01_ages_6":"6","01_ages_7":"7","01_ages_8":"8","01_ages_9":"9","02":"Yes","02_ages_1":"1","02_ages_2":"2","02_ages_3":"3","02_ages_4":"4","02_ages_5":"5","02_ages_6":"6","02_ages_7":"7","02_ages_8":"8","02_ages_9":"9","03":"Yes","03_ages_15":"15","03_ages_16":"16","03_ages_17":"17","03_ages_18":"18","04":"Yes","04_ages_1":"1","04_ages_2":"2","04_ages_3":"3","04_ages_4":"4","04_ages_5":"5","04_ages_6":"6","04_ages_7":"7","04_ages_8":"8","04_ages_9":"9","05":"No","06":"Yes","06_ages_17":"17","07":"No","08":"No"},"rt":247043,"item_order":[0,1,2,3,4,5,6,7],"radio_events":[17688,181505.59999999404,190798.20000001788,196080.09999999404,204309,205429,245392.90000000596,246110.30000001192],"checkbox_events":[18798,19978.09999999404,25931.20000001788,26415.70000001788,26940.59999999404,27494.70000001788,28018.70000001788,28675.30000001192,29249.5,182354.5,182840.20000001788,184072.5,184516.5,184972.20000001788,185598,186052.40000000596,186547.40000000596,187365.59999999404,191728,192122.09999999404,192515.40000000596,193030.40000000596,197140.09999999404,197513.5,197907.40000000596,198453.20000001788,198836.70000001788,199261.59999999404,199695.30000001192,201027.59999999404,201441,206751.70000001788],"key_events":[],"mouse_events":[17688,18798,19978.09999999404,25931.20000001788,26415.70000001788,26940.59999999404,27494.70000001788,28018.70000001788,28675.30000001192,29249.5,181505.59999999404,182354.5,182840.20000001788,183364.90000000596,184072.5,184516.5,184972.20000001788,185598,186052.40000000596,186547.40000000596,187365.59999999404,190798.20000001788,191728,192122.09999999404,192515.40000000596,193030.40000000596,196080.09999999404,197140.09999999404,197513.5,197907.40000000596,198453.20000001788,198836.70000001788,199261.59999999404,199695.30000001192,200290.20000001788,201027.59999999404,201441,204309,205429,206751.70000001788,245392.90000000596,246110.30000001192,247039],"honeypot":0,"survey":"mace","page":10,"trial_type":"survey-mace","trial_index":18,"time_elapsed":769872,"internal_node_id":"0.0-18.0","task_version":"prescreen-v0.3","browser_interactions":0,"instructed":0},{"rt":2012,"trial_type":"mental-health-alert","trial_index":19,"time_elapsed":771885,"internal_node_id":"0.0-19.0","task_version":"prescreen-v0.3","interactions":"[]"}]