[{"view_history":[{"page_index":0,"viewing_time":5055.9000000059605},{"page_index":1,"viewing_time":5064.4000000059605},{"page_index":2,"viewing_time":6022.899999976158},{"page_index":3,"viewing_time":1354.7000000178814}],"rt":17499,"trial_type":"instructions","trial_index":0,"time_elapsed":17515,"internal_node_id":"0.0-0.0","task_version":"prescreen-v0.3"},{"rt":16653.90000000596,"responses":{"age":"31","gender-categorical":"Female","gender-free-response":"","ethnicity":"Not Hispanic or Latino","race":["White"],"education":"Some college"},"trial_type":"survey-demo","trial_index":1,"time_elapsed":34175,"internal_node_id":"0.0-1.0","task_version":"prescreen-v0.3"},{"responses":{"Q16":"3","Q01":"2","Q13":"2","Q14":"3","Q10":"0","Q15":"3","Q08":"2","Q20":"0","Q04":"2","Q06":"1","Q17":"1","Q05":"1","Q12":"2","Q11":"0","Q07":"0","Q09":"0","Q18":"3","Q21":"3","Q19":"2","Q02":"1","Q03":"2"},"rt":124668.80000001192,"item_order":[15,0,12,13,9,14,7,19,3,5,16,4,11,10,6,8,17,20,18,1,2],"radio_events":[20463.100000023842,23229.90000000596,30347.20000001788,35635,39449.40000000596,44061.40000000596,47588.60000002384,50640.90000000596,60368.20000001788,66008.80000001192,69954,80257.80000001192,84062.5,87225.20000001788,93144.10000002384,97539.30000001192,102080.10000002384,105132.80000001192,113125.90000000596,119143.10000002384,123682.80000001192],"key_events":[],"mouse_events":[20463.100000023842,23229.90000000596,30347.20000001788,35635,39449.40000000596,44061.40000000596,47588.60000002384,50640.90000000596,60368.20000001788,66008.80000001192,69954,80257.80000001192,84062.5,87225.20000001788,93144.10000002384,97539.30000001192,102080.10000002384,105132.80000001192,113125.90000000596,119143.10000002384,123682.80000001192,124667.20000001788],"straightlining":0.3333333333333333,"zigzagging":0.55,"honeypot":0,"survey":"sns","trial_type":"survey-template","trial_index":2,"time_elapsed":158850,"internal_node_id":"0.0-2.0","task_version":"prescreen-v0.3","browser_interactions":0,"infrequency":0},{"responses":{"Q11":"3","Q07":"3","Q05":"3","Q08":"3","Q13":"0","Q06":"3","Q10":"3","Q03":"3","Q02":"3","Q12":"2","Q01":"2","Q09":"3","Q04":"3"},"rt":70257.79999998212,"item_order":[10,6,4,7,12,5,9,2,1,11,0,8,3],"radio_events":[9396.59999999404,11177.90000000596,13796.299999982119,17227.09999999404,21172.90000000596,28107.5,32502.59999999404,48622.19999998808,52020.29999998212,58362.79999998212,60190.69999998808,64187.79999998212,69171.09999999404],"key_events":[],"mouse_events":[9396.59999999404,11177.90000000596,13796.299999982119,17227.09999999404,21172.90000000596,28107.5,32502.59999999404,41189.29999998212,48622.19999998808,52020.29999998212,58362.79999998212,60190.69999998808,64187.79999998212,69171.09999999404,70255.79999998212],"straightlining":0.7692307692307693,"zigzagging":0.3333333333333333,"honeypot":0,"survey":"bisbas","trial_type":"survey-template","trial_index":3,"time_elapsed":229112,"internal_node_id":"0.0-3.0","task_version":"prescreen-v0.3","browser_interactions":0,"infrequency":0},{"responses":{"Q01":"2","Q02":"2","Q03":"2"},"rt":28988.600000023842,"radio_events":[10988.40000000596,16027.90000000596,19050.70000001788,27807.600000023842],"key_events":[],"mouse_events":[7101.700000017881,9821.800000011921,10988.40000000596,16027.90000000596,19050.70000001788,26539.100000023842,27807.600000023842,28988.100000023842],"survey":"map","page":1,"trial_type":"survey-map","trial_index":4,"time_elapsed":258104,"internal_node_id":"0.0-4.0","task_version":"prescreen-v0.3","browser_interactions":0},{"responses":{"Q04":"4","Q05":"4","Q06":"4"},"rt":17585.40000000596,"radio_events":[7300.199999988079,11683.90000000596,16616.09999999404],"key_events":[],"mouse_events":[7300.199999988079,11683.90000000596,15558.59999999404,16616.09999999404,17584.59999999404],"survey":"map","page":2,"trial_type":"survey-map","trial_index":5,"time_elapsed":275691,"internal_node_id":"0.0-5.0","task_version":"prescreen-v0.3","browser_interactions":0},{"responses":{"Q07":"3","Q08":"3","Q09":"2"},"rt":20406.399999976158,"radio_events":[8553.09999999404,13994.299999982119,19165.5],"key_events":[],"mouse_events":[8553.09999999404,13994.299999982119,19165.5,20405.5],"survey":"map","page":3,"trial_type":"survey-map","trial_index":6,"time_elapsed":296100,"internal_node_id":"0.0-6.0","task_version":"prescreen-v0.3","browser_interactions":0},{"responses":{"Q10":"0","Q11":"0","Q12":"1","Q13":"2","Q16":"0","Q14":"4","Q15":"4"},"rt":43196.5,"radio_events":[4688.4000000059605,7807.300000011921,13703.90000000596,26533.80000001192,32256.70000001788,38392.5,41975.20000001788],"key_events":[],"mouse_events":[4688.4000000059605,7807.300000011921,13703.90000000596,26533.80000001192,32256.70000001788,38392.5,41975.20000001788,43194.70000001788],"survey":"map","page":4,"trial_type":"survey-map","trial_index":7,"time_elapsed":339300,"internal_node_id":"0.0-7.0","task_version":"prescreen-v0.3","browser_interactions":0,"infrequency":0},{"view_history":[{"page_index":0,"viewing_time":3099.0999999940395},{"page_index":1,"viewing_time":5294.200000017881}],"rt":8393.90000000596,"trial_type":"instructions","trial_index":8,"time_elapsed":347695,"internal_node_id":"0.0-8.0","task_version":"prescreen-v0.3"},{"responses":{"01":"Yes","01_ages_12":"12","01_ages_13":"13","01_ages_14":"14","01_ages_15":"15","01_ages_16":"16","01_ages_17":"17","01_ages_18":"18","02":"Yes","02_ages_11":"11","02_ages_12":"12","02_ages_13":"13","02_ages_14":"14","02_ages_15":"15","02_ages_16":"16","02_ages_17":"17","02_ages_18":"18","03":"No","04":"No","05":"No","06":"No"},"rt":67914.20000001788,"item_order":[0,1,2,3,4,5],"radio_events":[11051.300000011921,29866.5,52651.40000000596,56340.90000000596,59306.10000002384,66079.90000000596],"checkbox_events":[16382.5,17051.40000000596,17783.80000001192,18509.80000001192,21706.20000001788,22769.20000001788,23423,39477.90000000596,40412.60000002384,41010,42418.10000002384,43530.90000000596,44319.80000001192,45385.90000000596,46159.20000001788],"key_events":[],"mouse_events":[0,11051.300000011921,16382.5,17051.40000000596,17783.80000001192,18509.80000001192,21706.20000001788,22769.20000001788,23423,29866.5,39477.90000000596,40412.60000002384,41010,41691.20000001788,42418.10000002384,42999.30000001192,43530.90000000596,44319.80000001192,45385.90000000596,46159.20000001788,52651.40000000596,56340.90000000596,59306.10000002384,66079.90000000596,67911],"honeypot":0,"survey":"mace","page":1,"trial_type":"survey-mace","trial_index":9,"time_elapsed":415616,"internal_node_id":"0.0-9.0","task_version":"prescreen-v0.3","browser_interactions":0},{"responses":{"01":"No","02":"No","03":"Yes","03_ages_2":"2","03_ages_3":"3","03_ages_4":"4","03_ages_5":"5","03_ages_6":"6","04":"No","05":"No","06":"No","07":"No","08":"No"},"rt":34030.40000000596,"item_order":[0,1,2,3,4,5,6,7],"radio_events":[3506.7999999821186,6753.4000000059605,8915.59999999404,22344.29999998212,27485.19999998808,29794.5,31844.19999998808,33273.59999999404],"checkbox_events":[10239.90000000596,11155.40000000596,11895,12515.199999988079,13331.59999999404,14802.90000000596,18887.40000000596],"key_events":[],"mouse_events":[3506.7999999821186,6753.4000000059605,8915.59999999404,10239.90000000596,11155.40000000596,11895,12515.199999988079,13331.59999999404,14802.90000000596,18887.40000000596,22344.29999998212,27485.19999998808,29794.5,31844.19999998808,33273.59999999404,34026.79999998212],"honeypot":0,"survey":"mace","page":2,"trial_type":"survey-mace","trial_index":10,"time_elapsed":449650,"internal_node_id":"0.0-10.0","task_version":"prescreen-v0.3","browser_interactions":0},{"responses":{"01":"No","02":"No","03":"No","04":"No"},"rt":11524.59999999404,"item_order":[0,1,2,3],"radio_events":[3682.300000011921,6055.9000000059605,9312.300000011921,10792.59999999404],"checkbox_events":[],"key_events":[],"mouse_events":[3682.300000011921,6055.9000000059605,9312.300000011921,10792.59999999404,11523.300000011921],"honeypot":0,"survey":"mace","page":3,"trial_type":"survey-mace","trial_index":11,"time_elapsed":461177,"internal_node_id":"0.0-11.0","task_version":"prescreen-v0.3","browser_interactions":0},{"responses":{"01":"No","02":"No"},"rt":6844.399999976158,"item_order":[0,1],"radio_events":[3906.5999999940395,6226],"checkbox_events":[],"key_events":[],"mouse_events":[3906.5999999940395,6226,6842.799999982119],"honeypot":0,"survey":"mace","page":4,"trial_type":"survey-mace","trial_index":12,"time_elapsed":468024,"internal_node_id":"0.0-12.0","task_version":"prescreen-v0.3","browser_interactions":0},{"responses":{"01":"Yes","01_ages_8":"8","01_ages_9":"9","01_ages_10":"10","01_ages_11":"11","01_ages_12":"12","01_ages_13":"13","01_ages_14":"14","01_ages_15":"15","01_ages_16":"16","01_ages_17":"17","01_ages_18":"18","02":"No","03":"No","04":"No","05":"No"},"rt":46482.5,"item_order":[0,1,2,3,4],"radio_events":[16418.30000001192,36549.20000001788,41641.70000001788,44191.5,45677.70000001788],"checkbox_events":[23120.20000001788,23612.70000001788,24302.20000001788,25190.20000001788,25711.5,26239.100000023842,27007.5,27668.70000001788,28507.90000000596,29042.90000000596,29738.600000023842],"key_events":[],"mouse_events":[16418.30000001192,23120.20000001788,23612.70000001788,24302.20000001788,25190.20000001788,25711.5,26239.100000023842,27007.5,27668.70000001788,28507.90000000596,29042.90000000596,29738.600000023842,36549.20000001788,41641.70000001788,44191.5,45677.70000001788,46480.40000000596],"honeypot":0,"survey":"mace","page":5,"trial_type":"survey-mace","trial_index":13,"time_elapsed":514510,"internal_node_id":"0.0-13.0","task_version":"prescreen-v0.3","browser_interactions":0},{"responses":{"01":"Yes","01_ages_9":"9","01_ages_10":"10","01_ages_11":"11","01_ages_12":"12","01_ages_13":"13","01_ages_14":"14","01_ages_15":"15","01_ages_16":"16","01_ages_17":"17","01_ages_18":"18","02":"Yes","02_ages_9":"9","02_ages_10":"10","02_ages_11":"11","02_ages_12":"12","02_ages_13":"13","02_ages_14":"14","02_ages_15":"15","02_ages_16":"16","02_ages_17":"17","02_ages_18":"18","03":"Yes","03_ages_9":"9","03_ages_10":"10","03_ages_11":"11","03_ages_12":"12","03_ages_13":"13","03_ages_14":"14","03_ages_15":"15","03_ages_16":"16","03_ages_17":"17","03_ages_18":"18","04":"Yes","04_ages_9":"9","04_ages_10":"10","04_ages_11":"11","04_ages_12":"12","04_ages_13":"13","04_ages_14":"14","04_ages_15":"15","05":"Yes","05_ages_6":"6","05_ages_7":"7","05_ages_8":"8","05_ages_9":"9","05_ages_10":"10","05_ages_11":"11","05_ages_12":"12","05_ages_13":"13","05_ages_14":"14","05_ages_15":"15","05_ages_16":"16","05_ages_17":"17","05_ages_18":"18"},"rt":78907.70000001788,"item_order":[0,1,2,3,4],"radio_events":[9291.300000011921,24799.70000001788,38476.20000001788,51865.40000000596,66176.5],"checkbox_events":[14826.40000000596,15538.700000017881,16228.100000023842,16890.90000000596,18186.30000001192,19003.600000023842,19574,20285.100000023842,20961.90000000596,21728.90000000596,27483.5,28145.5,28736.40000000596,30702.5,31314.600000023842,31955.80000001192,32604,33427.5,34160.30000001192,34765.40000000596,41399.30000001192,42484.90000000596,43090,43659.90000000596,45322,45943.30000001192,46659.5,47682.20000001788,48400.60000002384,49154.10000002384,55746.90000000596,56465.60000002384,57097.90000000596,57795.80000001192,58408.20000001788,60395.20000001788,61246,70023.10000002384,70572.40000000596,71156.5,71867.10000002384,72607.5,73261.80000001192,73938.90000000596,74706.10000002384,75361.30000001192,76037.5,76663.70000001788,77403,78100.20000001788],"key_events":[],"mouse_events":[9291.300000011921,14826.40000000596,15538.700000017881,16228.100000023842,16890.90000000596,17497,18186.30000001192,19003.600000023842,19574,20285.100000023842,20961.90000000596,21728.90000000596,24799.70000001788,27483.5,28145.5,28736.40000000596,29229.30000001192,29948.600000023842,30702.5,31314.600000023842,31955.80000001192,32604,33427.5,34160.30000001192,34765.40000000596,38476.20000001788,41399.30000001192,42048.10000002384,42484.90000000596,43090,43659.90000000596,44217.60000002384,45322,45943.30000001192,46659.5,47682.20000001788,48400.60000002384,49154.10000002384,51865.40000000596,55746.90000000596,56465.60000002384,57097.90000000596,57795.80000001192,58408.20000001788,60395.20000001788,61246,66176.5,70023.10000002384,70572.40000000596,71156.5,71867.10000002384,72607.5,73261.80000001192,73938.90000000596,74706.10000002384,75361.30000001192,76037.5,76663.70000001788,77403,78100.20000001788,78903.5],"honeypot":0,"survey":"mace","page":6,"trial_type":"survey-mace","trial_index":14,"time_elapsed":593421,"internal_node_id":"0.0-14.0","task_version":"prescreen-v0.3","browser_interactions":0},{"responses":{"01":"No","02":"No","03":"Yes","03_ages_7":"7","03_ages_8":"8","03_ages_9":"9","03_ages_10":"10","03_ages_11":"11","03_ages_12":"12","03_ages_13":"13","03_ages_14":"14","03_ages_15":"15","03_ages_16":"16","03_ages_17":"17","03_ages_18":"18","04":"Yes","04_ages_7":"7","04_ages_8":"8","04_ages_9":"9","04_ages_10":"10","04_ages_11":"11","04_ages_12":"12","04_ages_13":"13","04_ages_14":"14","04_ages_15":"15","05":"Yes","05_ages_13":"13","05_ages_14":"14","06":"No","07":"No"},"rt":56539,"item_order":[0,1,2,3,4,5,6],"radio_events":[6031.700000017881,10160.200000017881,11855.200000017881,31606.59999999404,46426.90000000596,54012.40000000596,55837.40000000596],"checkbox_events":[16887.09999999404,18000,20190.30000001192,20873.40000000596,22650.40000000596,23287.59999999404,24891,25978.20000001788,26769.40000000596,27422.09999999404,28117.59999999404,28944.40000000596,33020.80000001192,33732.5,34341.09999999404,35089,35690.59999999404,36545.40000000596,37243.40000000596,37962.20000001788,38794.70000001788,50921.30000001192,51625.40000000596],"key_events":[],"mouse_events":[6031.700000017881,10160.200000017881,11855.200000017881,16887.09999999404,17408.70000001788,18000,20190.30000001192,20873.40000000596,21902.80000001192,22650.40000000596,23287.59999999404,23932.5,24891,25978.20000001788,26769.40000000596,27422.09999999404,28117.59999999404,28944.40000000596,31606.59999999404,33020.80000001192,33732.5,34341.09999999404,35089,35690.59999999404,36545.40000000596,37243.40000000596,37962.20000001788,38794.70000001788,46426.90000000596,50921.30000001192,51625.40000000596,54012.40000000596,55837.40000000596,56534.09999999404],"honeypot":0,"survey":"mace","page":7,"trial_type":"survey-mace","trial_index":15,"time_elapsed":649964,"internal_node_id":"0.0-15.0","task_version":"prescreen-v0.3","browser_interactions":0},{"responses":{"01":"No","02":"Yes","02_ages_6":"6","02_ages_7":"7","02_ages_8":"8","02_ages_9":"9","02_ages_10":"10","02_ages_11":"11","02_ages_12":"12","02_ages_13":"13","02_ages_14":"14","02_ages_15":"15","02_ages_16":"16","02_ages_17":"17","02_ages_18":"18","03":"Yes","03_ages_6":"6","03_ages_7":"7","03_ages_8":"8","03_ages_9":"9","03_ages_10":"10","03_ages_11":"11","03_ages_12":"12","03_ages_13":"13","03_ages_14":"14","03_ages_15":"15","03_ages_16":"16","03_ages_17":"17","03_ages_18":"18","04":"Yes","04_ages_6":"6","04_ages_7":"7","04_ages_8":"8","04_ages_9":"9","04_ages_10":"10","04_ages_11":"11","04_ages_12":"12","04_ages_13":"13","04_ages_14":"14"},"rt":60172.5,"item_order":[0,1,2,3],"radio_events":[12985.09999999404,14816.300000011921,32789.5,50516.90000000596],"checkbox_events":[20465.80000001192,21155.5,21999.90000000596,22951.90000000596,23663,24253.59999999404,24881.40000000596,25465.30000001192,26029.30000001192,26550.40000000596,27900.70000001788,28562.5,29685.5,34139.09999999404,34838.59999999404,35469.59999999404,36641.70000001788,37309.59999999404,38013.30000001192,38639.30000001192,39242.70000001788,40570.40000000596,41777.90000000596,42771.20000001788,43405.30000001192,44067.09999999404,51852.59999999404,53345.59999999404,53918,54549.59999999404,55912.59999999404,56805.90000000596,57450.30000001192,58167.5,59365.40000000596],"key_events":[],"mouse_events":[12985.09999999404,14816.300000011921,20465.80000001192,21155.5,21999.90000000596,22951.90000000596,23663,24253.59999999404,24881.40000000596,25465.30000001192,26029.30000001192,26550.40000000596,27212.40000000596,27900.70000001788,28562.5,29685.5,32789.5,34139.09999999404,34838.59999999404,35469.59999999404,36103,36641.70000001788,37309.59999999404,38013.30000001192,38639.30000001192,39242.70000001788,40570.40000000596,41777.90000000596,42771.20000001788,43405.30000001192,44067.09999999404,50516.90000000596,51852.59999999404,53345.59999999404,53918,54549.59999999404,55280.59999999404,55912.59999999404,56805.90000000596,57450.30000001192,58167.5,59365.40000000596,60170],"honeypot":0,"survey":"mace","page":8,"trial_type":"survey-mace","trial_index":16,"time_elapsed":710139,"internal_node_id":"0.0-16.0","task_version":"prescreen-v0.3","browser_interactions":0},{"responses":{"01":"Yes","01_ages_6":"6","01_ages_7":"7","01_ages_8":"8","01_ages_9":"9","01_ages_10":"10","01_ages_11":"11","01_ages_12":"12","01_ages_16":"16","01_ages_17":"17","01_ages_18":"18","02":"Yes","02_ages_5":"5","02_ages_6":"6","02_ages_7":"7","02_ages_8":"8","02_ages_9":"9","02_ages_10":"10","02_ages_11":"11","02_ages_12":"12","02_ages_16":"16","02_ages_17":"17","02_ages_18":"18","03":"Yes","03_ages_5":"5","03_ages_6":"6","03_ages_7":"7","03_ages_8":"8","03_ages_9":"9","03_ages_10":"10","03_ages_11":"11","03_ages_12":"12","03_ages_16":"16","03_ages_17":"17","03_ages_18":"18","04":"Yes","04_ages_5":"5","04_ages_6":"6","04_ages_7":"7","04_ages_8":"8","04_ages_9":"9","04_ages_10":"10","04_ages_11":"11","04_ages_12":"12","04_ages_13":"13","04_ages_14":"14","04_ages_15":"15","04_ages_16":"16","04_ages_17":"17","04_ages_18":"18"},"rt":70088.80000001192,"item_order":[0,1,2,3],"radio_events":[5687.300000011921,23663.90000000596,36335.70000001788,55477.20000001788],"checkbox_events":[11308,11939.700000017881,12487.5,13062.200000017881,13666,14952.200000017881,16416.80000001192,18780.5,19707.59999999404,20224.59999999404,24846.80000001192,25756.5,26372.20000001788,28281,28850.70000001788,29639.5,30217.20000001788,30878.20000001788,32076.70000001788,32653.30000001192,33272.59999999404,38104,38706,40196,40872.80000001192,42895.30000001192,43577,45028.59999999404,46210.20000001788,47043.30000001192,47775.30000001192,49881.30000001192,50442.20000001788,51110.70000001788,59082.90000000596,59684.40000000596,61064.40000000596,62230.90000000596,62956.40000000596,63588,64435.40000000596,65118.5,65791.59999999404,66532.09999999404,67533.90000000596,68150.40000000596,68803.20000001788,69418.09999999404],"key_events":[],"mouse_events":[5687.300000011921,11308,11939.700000017881,12487.5,13062.200000017881,13666,14952.200000017881,16416.80000001192,18780.5,19707.59999999404,20224.59999999404,23663.90000000596,24846.80000001192,25756.5,26372.20000001788,26830,28281,28850.70000001788,29639.5,30217.20000001788,30878.20000001788,32076.70000001788,32653.30000001192,33272.59999999404,36335.70000001788,37393.59999999404,38104,38706,40196,40872.80000001192,42895.30000001192,43577,45028.59999999404,46210.20000001788,47043.30000001192,47775.30000001192,49162.40000000596,49881.30000001192,50442.20000001788,51110.70000001788,55477.20000001788,59082.90000000596,59684.40000000596,60403.20000001788,61064.40000000596,61614.40000000596,62230.90000000596,62956.40000000596,63588,64435.40000000596,65118.5,65791.59999999404,66532.09999999404,67533.90000000596,68150.40000000596,68803.20000001788,69418.09999999404,70085.90000000596],"honeypot":0,"survey":"mace","page":9,"trial_type":"survey-mace","trial_index":17,"time_elapsed":780231,"internal_node_id":"0.0-17.0","task_version":"prescreen-v0.3","browser_interactions":0},{"responses":{"01":"No","02":"No","03":"No","04":"Yes","04_ages_13":"13","04_ages_14":"14","04_ages_15":"15","04_ages_16":"16","04_ages_17":"17","05":"No","06":"Yes","06_ages_17":"17","07":"Yes","07_ages_5":"5","07_ages_6":"6","07_ages_7":"7","07_ages_8":"8","07_ages_9":"9","07_ages_10":"10","07_ages_11":"11","07_ages_12":"12","07_ages_13":"13","07_ages_14":"14","07_ages_15":"15","07_ages_16":"16","07_ages_17":"17","08":"Yes","08_ages_5":"5","08_ages_6":"6","08_ages_7":"7","08_ages_8":"8","08_ages_9":"9","08_ages_10":"10","08_ages_11":"11","08_ages_12":"12","08_ages_13":"13","08_ages_14":"14","08_ages_15":"15","08_ages_16":"16","08_ages_17":"17","08_ages_18":"18"},"rt":62929.59999999404,"item_order":[0,1,2,3,4,5,6,7],"radio_events":[5919,7101.199999988079,9850.800000011921,12309.300000011921,21062.40000000596,22829.30000001192,29357.40000000596,48880.40000000596],"checkbox_events":[13710.300000011921,14753.699999988079,15456.09999999404,16082.59999999404,16721.19999998808,24315.40000000596,32985.90000000596,34015.5,37506.90000000596,38084.40000000596,38689.59999999404,39830,40613,41211.09999999404,41873.5,42703.80000001192,43415.19999998808,43998.69999998808,45365.59999999404,46231.59999999404,46840.90000000596,47674.90000000596,47902.09999999404,51211.30000001192,51909.59999999404,52465.59999999404,53105.5,54902.40000000596,55817.40000000596,56628.90000000596,57571.59999999404,58655.59999999404,59480.69999998808,60087.09999999404,60754.90000000596,61501.19999998808,62234.5],"key_events":[],"mouse_events":[5919,7101.199999988079,8784.300000011921,9850.800000011921,12309.300000011921,13710.300000011921,14328.90000000596,14753.699999988079,15456.09999999404,16082.59999999404,16721.19999998808,21062.40000000596,22829.30000001192,24315.40000000596,29357.40000000596,32985.90000000596,34015.5,35880.5,36744.90000000596,37506.90000000596,38084.40000000596,38689.59999999404,39830,40613,41211.09999999404,41873.5,42703.80000001192,43415.19999998808,43998.69999998808,44710.90000000596,45365.59999999404,46231.59999999404,46840.90000000596,47674.90000000596,47902.09999999404,48880.40000000596,51211.30000001192,51909.59999999404,52465.59999999404,53105.5,53930.40000000596,54902.40000000596,55817.40000000596,56628.90000000596,57571.59999999404,58141.59999999404,58655.59999999404,59480.69999998808,60087.09999999404,60754.90000000596,61501.19999998808,62234.5,62924.90000000596],"honeypot":0,"survey":"mace","page":10,"trial_type":"survey-mace","trial_index":18,"time_elapsed":843165,"internal_node_id":"0.0-18.0","task_version":"prescreen-v0.3","browser_interactions":0,"instructed":0},{"rt":2336.5,"trial_type":"mental-health-alert","trial_index":19,"time_elapsed":845504,"internal_node_id":"0.0-19.0","task_version":"prescreen-v0.3","interactions":"[]"}]