[{"view_history":[{"page_index":0,"viewing_time":19657.20000001788},{"page_index":1,"viewing_time":5859.5999999940395},{"page_index":2,"viewing_time":7381.699999988079},{"page_index":3,"viewing_time":1888.2000000178814}],"rt":34787.40000000596,"trial_type":"instructions","trial_index":0,"time_elapsed":34805,"internal_node_id":"0.0-0.0","task_version":"prescreen-v0.3"},{"rt":17485.69999998808,"responses":{"age":"27","gender-categorical":"Male","gender-free-response":"","ethnicity":"Not Hispanic or Latino","race":["American Indian/Alaska Native","White"],"education":"Bachelor degree"},"trial_type":"survey-demo","trial_index":1,"time_elapsed":52296,"internal_node_id":"0.0-1.0","task_version":"prescreen-v0.3"},{"responses":{"Q10":"1","Q19":"2","Q02":"1","Q13":"1","Q17":"0","Q18":"2","Q07":"1","Q14":"2","Q01":"1","Q21":"3","Q03":"1","Q06":"1","Q12":"1","Q11":"0","Q04":"2","Q08":"2","Q20":"0","Q05":"2","Q16":"1","Q09":"1","Q15":"2"},"rt":113515.19999998808,"item_order":[9,18,1,12,16,17,6,13,0,20,2,5,11,10,3,7,19,4,15,8,14],"radio_events":[10773.59999999404,16810.90000000596,22545.19999998808,28737.5,33889.30000001192,39567.40000000596,44701.19999998808,48611.19999998808,50825.09999999404,56435.09999999404,62471.30000001192,65966.90000000596,74875.40000000596,75975,81003.19999998808,84708.90000000596,87599.09999999404,97499.40000000596,101765.19999998808,106351.09999999404,112201.40000000596],"key_events":[],"mouse_events":[10773.59999999404,16810.90000000596,22545.19999998808,27914.09999999404,28737.5,33461,33889.30000001192,39567.40000000596,43849.19999998808,44701.19999998808,48611.19999998808,50825.09999999404,56435.09999999404,61975.09999999404,62471.30000001192,65966.90000000596,74875.40000000596,75975,80265.40000000596,80669.09999999404,81003.19999998808,84708.90000000596,87599.09999999404,97499.40000000596,101765.19999998808,106001.40000000596,106351.09999999404,112201.40000000596,113513.40000000596],"straightlining":0.47619047619047616,"zigzagging":0.45,"honeypot":0,"survey":"sns","trial_type":"survey-template","trial_index":2,"time_elapsed":165815,"internal_node_id":"0.0-2.0","task_version":"prescreen-v0.3","browser_interactions":0,"infrequency":0},{"responses":{"Q04":"2","Q12":"1","Q02":"2","Q10":"1","Q13":"0","Q05":"3","Q01":"2","Q08":"2","Q03":"2","Q06":"3","Q09":"2","Q07":"3","Q11":"2"},"rt":50557.20000001788,"item_order":[3,11,1,9,12,4,0,7,2,5,8,6,10],"radio_events":[8330.40000000596,13023.800000011921,14966,20231.90000000596,22253.90000000596,27240,29424.09999999404,32437.80000001192,36671.90000000596,39631.80000001192,42010,44999.90000000596,49498.30000001192],"key_events":[],"mouse_events":[7677.800000011921,8330.40000000596,13023.800000011921,14966,19635.90000000596,20231.90000000596,22253.90000000596,27240,29424.09999999404,32437.80000001192,36671.90000000596,39631.80000001192,42010,44270.5,44999.90000000596,49498.30000001192,50556.20000001788],"straightlining":0.5384615384615384,"zigzagging":0.8333333333333334,"honeypot":0,"survey":"bisbas","trial_type":"survey-template","trial_index":3,"time_elapsed":216376,"internal_node_id":"0.0-3.0","task_version":"prescreen-v0.3","browser_interactions":0,"infrequency":0},{"responses":{"Q01":"3","Q02":"3","Q03":"2"},"rt":17545.79999998212,"radio_events":[6335.0999999940395,10987.299999982119,11501,16597.09999999404],"key_events":[],"mouse_events":[6335.0999999940395,10987.299999982119,11501,16597.09999999404,17545.29999998212],"survey":"map","page":1,"trial_type":"survey-map","trial_index":4,"time_elapsed":233925,"internal_node_id":"0.0-4.0","task_version":"prescreen-v0.3","browser_interactions":0},{"responses":{"Q04":"2","Q05":"2","Q06":"3"},"rt":14229.40000000596,"radio_events":[5257,11572.799999982119,13469.199999988079],"key_events":[],"mouse_events":[5257,11572.799999982119,13469.199999988079,14228.90000000596],"survey":"map","page":2,"trial_type":"survey-map","trial_index":5,"time_elapsed":248157,"internal_node_id":"0.0-5.0","task_version":"prescreen-v0.3","browser_interactions":0},{"responses":{"Q07":"3","Q08":"4","Q09":"2"},"rt":18887.09999999404,"radio_events":[7523.9000000059605,14861.800000011921,17487.70000001788],"key_events":[],"mouse_events":[7523.9000000059605,14861.800000011921,17487.70000001788,18886.70000001788],"survey":"map","page":3,"trial_type":"survey-map","trial_index":6,"time_elapsed":267046,"internal_node_id":"0.0-6.0","task_version":"prescreen-v0.3","browser_interactions":0},{"responses":{"Q10":"2","Q11":"2","Q12":"1","Q13":"3","Q16":"0","Q14":"2","Q15":"2"},"rt":34281.59999999404,"radio_events":[4766.699999988079,8069.199999988079,15714.5,21112.399999976158,24796.399999976158,28944.5,30986.899999976158,33442.59999999404],"key_events":[],"mouse_events":[4766.699999988079,8069.199999988079,14890.399999976158,15714.5,21112.399999976158,24344.59999999404,24796.399999976158,28944.5,30700.899999976158,30986.899999976158,33442.59999999404,34280.69999998808],"survey":"map","page":4,"trial_type":"survey-map","trial_index":7,"time_elapsed":301330,"internal_node_id":"0.0-7.0","task_version":"prescreen-v0.3","browser_interactions":0,"infrequency":0},{"view_history":[{"page_index":0,"viewing_time":4425.0999999940395},{"page_index":1,"viewing_time":6107.9000000059605}],"rt":10533.59999999404,"trial_type":"instructions","trial_index":8,"time_elapsed":311864,"internal_node_id":"0.0-8.0","task_version":"prescreen-v0.3"},{"responses":{"01":"Yes","01_ages_5":"5","01_ages_6":"6","01_ages_7":"7","01_ages_8":"8","01_ages_9":"9","01_ages_10":"10","01_ages_11":"11","01_ages_12":"12","01_ages_13":"13","01_ages_14":"14","01_ages_15":"15","01_ages_16":"16","01_ages_17":"17","02":"Yes","02_ages_5":"5","02_ages_6":"6","02_ages_7":"7","02_ages_8":"8","02_ages_9":"9","02_ages_10":"10","02_ages_11":"11","02_ages_12":"12","02_ages_13":"13","02_ages_14":"14","02_ages_15":"15","02_ages_16":"16","02_ages_17":"17","03":"Yes","03_ages_15":"15","03_ages_16":"16","03_ages_17":"17","04":"No","05":"No","06":"Yes","06_ages_15":"15","06_ages_16":"16","06_ages_17":"17"},"rt":59965.69999998808,"item_order":[0,1,2,3,4,5],"radio_events":[5891.5999999940395,25547.79999998212,43265.5,48391.69999998808,50511.59999999404,53479.39999997616],"checkbox_events":[11246,11633.699999988079,11953.799999982119,12293.59999999404,12737.699999988079,13047.799999982119,13365.399999976158,14446,14710,15269.699999988079,15587.899999976158,16077.399999976158,18135.29999998212,19153.69999998808,19533.399999976158,19829.59999999404,28281.59999999404,28653.59999999404,29523.69999998808,30029.59999999404,30859.5,31449.69999998808,31869.5,33347.09999999404,33712,34464,34845.89999997616,35249.69999998808,35993.5,36678.09999999404,44375.59999999404,45449.29999998212,54829.89999997616,55133.39999997616,57060.19999998808,57774.19999998808],"key_events":[],"mouse_events":[0.19999998807907104,5891.5999999940395,11246,11633.699999988079,11953.799999982119,12293.59999999404,12737.699999988079,13047.799999982119,13365.399999976158,13708.699999988079,14035.399999976158,14446,14710,15029.699999988079,15269.699999988079,15587.899999976158,16077.399999976158,18135.29999998212,19153.69999998808,19533.399999976158,19829.59999999404,25547.79999998212,28281.59999999404,28653.59999999404,29181.5,29523.69999998808,30029.59999999404,30859.5,31201.19999998808,31449.69999998808,31869.5,32290.09999999404,32693.5,33011.5,33347.09999999404,33712,34464,34845.89999997616,35249.69999998808,35993.5,36678.09999999404,43265.5,44375.59999999404,45449.29999998212,48391.69999998808,50511.59999999404,53479.39999997616,54829.89999997616,55133.39999997616,57060.19999998808,57774.19999998808,59963.59999999404],"honeypot":0,"survey":"mace","page":1,"trial_type":"survey-mace","trial_index":9,"time_elapsed":371836,"internal_node_id":"0.0-9.0","task_version":"prescreen-v0.3","browser_interactions":0},{"responses":{"01":"Yes","01_ages_16":"16","01_ages_17":"17","02":"No","03":"Yes","03_ages_1":"1","03_ages_2":"2","03_ages_3":"3","03_ages_4":"4","03_ages_5":"5","03_ages_6":"6","03_ages_7":"7","03_ages_8":"8","03_ages_9":"9","03_ages_10":"10","04":"No","05":"No","06":"No","07":"No","08":"No"},"rt":32567.09999999404,"item_order":[0,1,2,3,4,5,6,7],"radio_events":[3668,10371.90000000596,12454,24198,26473.90000000596,28424,30015.79999998212,31842.09999999404],"checkbox_events":[4957.9000000059605,6054.4000000059605,14047.40000000596,14363.699999988079,15327.90000000596,15662,15964.40000000596,16275.799999982119,16779.79999998212,17439.79999998212,20429.69999998808,20874.40000000596],"key_events":[],"mouse_events":[3668,4957.9000000059605,6054.4000000059605,10371.90000000596,12454,14047.40000000596,14363.699999988079,14760.199999988079,15327.90000000596,15662,15964.40000000596,16275.799999982119,16779.79999998212,17114.40000000596,17439.79999998212,17813.79999998212,18083.69999998808,20429.69999998808,20874.40000000596,24198,26473.90000000596,28424,30015.79999998212,31842.09999999404,32564.19999998808],"honeypot":0,"survey":"mace","page":2,"trial_type":"survey-mace","trial_index":10,"time_elapsed":404407,"internal_node_id":"0.0-10.0","task_version":"prescreen-v0.3","browser_interactions":0},{"responses":{"01":"No","02":"No","03":"No","04":"No"},"rt":8833.199999988079,"item_order":[0,1,2,3],"radio_events":[4373.299999982119,6291.0999999940395,7441.4000000059605,7969.199999988079],"checkbox_events":[],"key_events":[],"mouse_events":[4373.299999982119,6291.0999999940395,7441.4000000059605,7969.199999988079,8831.799999982119],"honeypot":0,"survey":"mace","page":3,"trial_type":"survey-mace","trial_index":11,"time_elapsed":413243,"internal_node_id":"0.0-11.0","task_version":"prescreen-v0.3","browser_interactions":0},{"responses":{"01":"Yes","01_ages_2":"2","01_ages_3":"3","01_ages_4":"4","01_ages_5":"5","01_ages_6":"6","02":"Yes","02_ages_2":"2","02_ages_3":"3","02_ages_4":"4","02_ages_5":"5","02_ages_6":"6"},"rt":21086.29999998212,"item_order":[0,1],"radio_events":[5013.5999999940395,15485.299999982119],"checkbox_events":[7919.199999988079,8633.299999982119,9713.899999976158,10419.5,16496.29999998212,16900,17295.899999976158,17961.399999976158,19623.19999998808,20307.19999998808],"key_events":[],"mouse_events":[5013.5999999940395,7919.199999988079,8633.299999982119,9153.299999982119,9713.899999976158,10419.5,15485.299999982119,16496.29999998212,16900,17295.899999976158,17621.399999976158,17961.399999976158,19623.19999998808,20307.19999998808,21085.59999999404],"honeypot":0,"survey":"mace","page":4,"trial_type":"survey-mace","trial_index":12,"time_elapsed":434331,"internal_node_id":"0.0-12.0","task_version":"prescreen-v0.3","browser_interactions":0},{"responses":{"01":"Yes","01_ages_1":"1","01_ages_2":"2","01_ages_3":"3","01_ages_4":"4","01_ages_5":"5","01_ages_6":"6","01_ages_7":"7","01_ages_8":"8","01_ages_9":"9","01_ages_10":"10","01_ages_11":"11","01_ages_12":"12","01_ages_13":"13","01_ages_14":"14","01_ages_15":"15","01_ages_16":"16","01_ages_17":"17","02":"No","03":"No","04":"Yes","04_ages_1":"1","04_ages_2":"2","04_ages_3":"3","04_ages_4":"4","04_ages_5":"5","04_ages_6":"6","04_ages_7":"7","04_ages_8":"8","04_ages_9":"9","04_ages_10":"10","04_ages_11":"11","04_ages_12":"12","04_ages_13":"13","04_ages_14":"14","04_ages_15":"15","04_ages_16":"16","04_ages_17":"17","05":"No"},"rt":46404.80000001192,"item_order":[0,1,2,3,4],"radio_events":[10700.800000011921,24816.80000001192,28879.09999999404,31620.59999999404,45502.40000000596],"checkbox_events":[13186.59999999404,13459,14056.700000017881,14336.700000017881,15034.700000017881,15408.700000017881,16138.40000000596,16558.59999999404,16922.80000001192,17311.30000001192,17644.70000001788,18042.80000001192,18374.70000001788,18702.5,19058.5,19907,20201.80000001192,32544.5,33220.59999999404,33758.80000001192,34160.20000001788,34470.30000001192,34874.40000000596,35388.70000001788,35714.59999999404,36298.59999999404,36622.30000001192,36948.5,37671,37982.30000001192,38402.80000001192,39178.40000000596,39916.80000001192,40436.70000001788],"key_events":[],"mouse_events":[10366.5,10700.800000011921,13186.59999999404,13459,13738.59999999404,14056.700000017881,14336.700000017881,14600.5,15034.700000017881,15408.700000017881,15697.700000017881,16138.40000000596,16558.59999999404,16922.80000001192,17311.30000001192,17644.70000001788,18042.80000001192,18374.70000001788,18702.5,19058.5,19338.5,19588.70000001788,19907,20201.80000001192,24816.80000001192,28879.09999999404,31620.59999999404,32544.5,33220.59999999404,33758.80000001192,34160.20000001788,34470.30000001192,34874.40000000596,35388.70000001788,35714.59999999404,36040.40000000596,36298.59999999404,36622.30000001192,36948.5,37336.90000000596,37671,37982.30000001192,38402.80000001192,38820.40000000596,39178.40000000596,39612.70000001788,39916.80000001192,40436.70000001788,45502.40000000596,46402.80000001192],"honeypot":0,"survey":"mace","page":5,"trial_type":"survey-mace","trial_index":13,"time_elapsed":480739,"internal_node_id":"0.0-13.0","task_version":"prescreen-v0.3","browser_interactions":0},{"responses":{"01":"Yes","01_ages_4":"4","01_ages_5":"5","01_ages_6":"6","01_ages_7":"7","01_ages_8":"8","01_ages_9":"9","01_ages_10":"10","01_ages_11":"11","01_ages_12":"12","02":"Yes","02_ages_8":"8","02_ages_9":"9","02_ages_10":"10","02_ages_11":"11","02_ages_12":"12","02_ages_13":"13","02_ages_14":"14","02_ages_15":"15","02_ages_16":"16","02_ages_17":"17","03":"Yes","03_ages_13":"13","03_ages_14":"14","03_ages_15":"15","03_ages_16":"16","03_ages_17":"17","04":"No","05":"Yes","05_ages_13":"13","05_ages_14":"14","05_ages_15":"15","05_ages_16":"16","05_ages_17":"17"},"rt":47052.5,"item_order":[0,1,2,3,4],"radio_events":[5478.5999999940395,20260.80000001192,31934.30000001192,37504.5,41636.40000000596,43958.59999999404],"checkbox_events":[8408.59999999404,9107.59999999404,10412.700000017881,10816.800000011921,12136.40000000596,12742.5,13744.40000000596,14335,15298.59999999404,23430.90000000596,23934.40000000596,24494.5,24936.5,25706.40000000596,26451.09999999404,27026.90000000596,27857.59999999404,28246.40000000596,28734.59999999404,33691.20000001788,34156.5,34553.80000001192,34982.5,35414.70000001788,44968.30000001192,45318.5,45761,46250.20000001788,46568.30000001192],"key_events":[],"mouse_events":[5478.5999999940395,8408.59999999404,8750.59999999404,9107.59999999404,9876.59999999404,10412.700000017881,10816.800000011921,12136.40000000596,12742.5,13744.40000000596,14335,14782.5,15298.59999999404,20260.80000001192,23430.90000000596,23934.40000000596,24494.5,24936.5,25706.40000000596,26451.09999999404,27026.90000000596,27402.80000001192,27857.59999999404,28246.40000000596,28734.59999999404,31934.30000001192,33691.20000001788,34156.5,34553.80000001192,34982.5,35414.70000001788,37504.5,41636.40000000596,43958.59999999404,44968.30000001192,45318.5,45761,46250.20000001788,46568.30000001192,47050.59999999404],"honeypot":0,"survey":"mace","page":6,"trial_type":"survey-mace","trial_index":14,"time_elapsed":527795,"internal_node_id":"0.0-14.0","task_version":"prescreen-v0.3","browser_interactions":0},{"responses":{"01":"No","02":"Yes","02_ages_11":"11","02_ages_12":"12","02_ages_13":"13","02_ages_14":"14","02_ages_15":"15","02_ages_16":"16","02_ages_17":"17","03":"Yes","03_ages_11":"11","03_ages_12":"12","03_ages_13":"13","03_ages_14":"14","03_ages_15":"15","03_ages_16":"16","03_ages_17":"17","04":"Yes","04_ages_13":"13","04_ages_14":"14","04_ages_15":"15","04_ages_16":"16","04_ages_17":"17","05":"Yes","05_ages_16":"16","06":"Yes","06_ages_4":"4","06_ages_5":"5","06_ages_6":"6","06_ages_7":"7","07":"Yes","07_ages_4":"4","07_ages_5":"5","07_ages_6":"6","07_ages_7":"7"},"rt":48680.90000000596,"item_order":[0,1,2,3,4,5,6],"radio_events":[4342.5,6742.4000000059605,12802.40000000596,17702.5,26556.30000001192,32630.30000001192,41912.40000000596],"checkbox_events":[8592.59999999404,8878.700000017881,9175.5,9454.40000000596,9734.5,10472.40000000596,11070.700000017881,13640.40000000596,13958.200000017881,14403.700000017881,14713.40000000596,15698.800000011921,16033.5,16514.80000001192,18774.40000000596,20762.5,21104.40000000596,21920.5,23326.70000001788,28396.59999999404,35628.70000001788,36280.09999999404,37454.5,45052.80000001192,45376.40000000596,45780.5,47458.40000000596,47996.20000001788],"key_events":[],"mouse_events":[4342.5,6742.4000000059605,8592.59999999404,8878.700000017881,9175.5,9454.40000000596,9734.5,10052.300000011921,10472.40000000596,11070.700000017881,12802.40000000596,13640.40000000596,13958.200000017881,14403.700000017881,14713.40000000596,15014.200000017881,15396.09999999404,15698.800000011921,16033.5,16514.80000001192,17702.5,18774.40000000596,20762.5,21104.40000000596,21920.5,23326.70000001788,26556.30000001192,28396.59999999404,32630.30000001192,35628.70000001788,36280.09999999404,37454.5,41912.40000000596,45052.80000001192,45376.40000000596,45780.5,46752.5,47458.40000000596,47996.20000001788,48678.70000001788],"honeypot":0,"survey":"mace","page":7,"trial_type":"survey-mace","trial_index":15,"time_elapsed":576480,"internal_node_id":"0.0-15.0","task_version":"prescreen-v0.3","browser_interactions":0},{"responses":{"01":"No","02":"Yes","02_ages_1":"1","02_ages_2":"2","02_ages_3":"3","02_ages_4":"4","02_ages_5":"5","02_ages_6":"6","02_ages_7":"7","02_ages_8":"8","02_ages_9":"9","02_ages_10":"10","02_ages_11":"11","02_ages_12":"12","02_ages_13":"13","02_ages_14":"14","02_ages_15":"15","02_ages_16":"16","02_ages_17":"17","03":"Yes","03_ages_1":"1","03_ages_2":"2","03_ages_3":"3","03_ages_4":"4","03_ages_5":"5","03_ages_6":"6","03_ages_7":"7","03_ages_8":"8","03_ages_9":"9","03_ages_10":"10","03_ages_11":"11","03_ages_12":"12","03_ages_13":"13","03_ages_14":"14","03_ages_15":"15","03_ages_16":"16","03_ages_17":"17","03_ages_18":"18","04":"Yes","04_ages_8":"8","04_ages_9":"9","04_ages_10":"10","04_ages_11":"11","04_ages_12":"12","04_ages_13":"13","04_ages_14":"14","04_ages_15":"15","04_ages_16":"16","04_ages_17":"17"},"rt":52897.5,"item_order":[0,1,2,3],"radio_events":[11745.800000011921,14185.699999988079,31685.5,42945.40000000596],"checkbox_events":[18752.69999998808,19071.30000001192,19753.5,20491.80000001192,20966.09999999404,21331.40000000596,21625.40000000596,22457.40000000596,22939.40000000596,23343.69999998808,23615.19999998808,24111.59999999404,24981.80000001192,26217.30000001192,26792.90000000596,27241.5,27615.69999998808,28151.40000000596,28491.5,32897.40000000596,33541.90000000596,34186.09999999404,34535.69999998808,35219,35559.69999998808,35971.59999999404,36361.80000001192,36663.80000001192,37019.5,37331.69999998808,37695.09999999404,38201.69999998808,38614.19999998808,38943.30000001192,39355.69999998808,39715.40000000596,40359.40000000596,47917.59999999404,48469,49073.59999999404,49525.59999999404,50019.40000000596,50363.19999998808,50689.59999999404,51325.40000000596,51893.40000000596,52320.30000001192],"key_events":[],"mouse_events":[11745.800000011921,14185.699999988079,18752.69999998808,19071.30000001192,19521.80000001192,19753.5,20111.19999998808,20491.80000001192,20966.09999999404,21331.40000000596,21625.40000000596,22115.30000001192,22457.40000000596,22939.40000000596,23343.69999998808,23615.19999998808,24111.59999999404,24492.09999999404,24981.80000001192,25558,26217.30000001192,26792.90000000596,27241.5,27615.69999998808,28151.40000000596,28491.5,31685.5,32897.40000000596,33223.40000000596,33541.90000000596,33851.90000000596,34186.09999999404,34535.69999998808,34878.30000001192,35219,35559.69999998808,35971.59999999404,36361.80000001192,36663.80000001192,37019.5,37331.69999998808,37695.09999999404,38201.69999998808,38614.19999998808,38943.30000001192,39355.69999998808,39715.40000000596,40359.40000000596,42945.40000000596,47917.59999999404,48469,48793.19999998808,49073.59999999404,49525.59999999404,50019.40000000596,50363.19999998808,50689.59999999404,51007.19999998808,51325.40000000596,51646,51893.40000000596,52320.30000001192,52895.80000001192],"honeypot":0,"survey":"mace","page":8,"trial_type":"survey-mace","trial_index":16,"time_elapsed":629380,"internal_node_id":"0.0-16.0","task_version":"prescreen-v0.3","browser_interactions":0},{"responses":{"01":"Yes","01_ages_1":"1","01_ages_2":"2","01_ages_3":"3","01_ages_4":"4","01_ages_5":"5","01_ages_6":"6","01_ages_7":"7","01_ages_8":"8","01_ages_9":"9","01_ages_10":"10","01_ages_11":"11","01_ages_12":"12","01_ages_13":"13","01_ages_14":"14","01_ages_15":"15","01_ages_16":"16","01_ages_17":"17","01_ages_18":"18","02":"Yes","02_ages_1":"1","02_ages_2":"2","02_ages_3":"3","02_ages_4":"4","02_ages_5":"5","02_ages_6":"6","02_ages_7":"7","02_ages_8":"8","02_ages_9":"9","02_ages_10":"10","02_ages_11":"11","02_ages_12":"12","02_ages_13":"13","02_ages_14":"14","02_ages_15":"15","02_ages_16":"16","02_ages_17":"17","02_ages_18":"18","03":"Yes","03_ages_1":"1","03_ages_2":"2","03_ages_3":"3","03_ages_4":"4","03_ages_5":"5","03_ages_6":"6","03_ages_7":"7","03_ages_8":"8","03_ages_9":"9","03_ages_10":"10","03_ages_11":"11","03_ages_12":"12","03_ages_13":"13","03_ages_14":"14","03_ages_15":"15","03_ages_16":"16","03_ages_17":"17","03_ages_18":"18","04":"Yes","04_ages_1":"1","04_ages_2":"2","04_ages_3":"3","04_ages_4":"4","04_ages_5":"5","04_ages_6":"6","04_ages_7":"7","04_ages_8":"8","04_ages_9":"9","04_ages_10":"10","04_ages_11":"11","04_ages_12":"12","04_ages_13":"13","04_ages_14":"14","04_ages_15":"15","04_ages_16":"16","04_ages_17":"17","04_ages_18":"18"},"rt":54126.59999999404,"item_order":[0,1,2,3],"radio_events":[4857,17305,29739.29999998212,43158.90000000596],"checkbox_events":[6417.0999999940395,7023,8032.799999982119,8342.90000000596,8918.799999982119,9266.699999988079,9587,10201.09999999404,10558,11047.40000000596,11621,11978.799999982119,12420.90000000596,12849.199999988079,13196.799999982119,13649.09999999404,14347.90000000596,14705.299999982119,18315.59999999404,18633,18999.19999998808,19363.19999998808,19690.29999998212,20443.09999999404,21057.09999999404,21523.5,21997.19999998808,22322.69999998808,22681.40000000596,23077.09999999404,23408.79999998212,23759.29999998212,24203.09999999404,24569,24941.69999998808,26345,30463.19999998808,30850.79999998212,31610.90000000596,31923.40000000596,32311.09999999404,32659,32971.09999999404,33389.29999998212,33817,34180.90000000596,34515.69999998808,35322.79999998212,35650.19999998808,36077.40000000596,36877.19999998808,37234.90000000596,37561.40000000596,38073.09999999404,38764.90000000596,41496.79999998212,44651.5,44971,45271,45574.69999998808,45876.79999998212,46886.69999998808,47220.90000000596,47687,47904.79999998212,48292.79999998212,48628.19999998808,49432.90000000596,49823.09999999404,50249,51156.90000000596,51498.59999999404,51910.69999998808,52681.40000000596,53046.79999998212,53535],"key_events":[],"mouse_events":[4857,6417.0999999940395,6767.4000000059605,7023,7356.799999982119,8032.799999982119,8342.90000000596,8639.5,8918.799999982119,9266.699999988079,9587,9888.799999982119,10201.09999999404,10558,11047.40000000596,11621,11978.799999982119,12420.90000000596,12849.199999988079,13196.799999982119,13649.09999999404,14347.90000000596,14705.299999982119,17305,18315.59999999404,18633,18999.19999998808,19363.19999998808,19690.29999998212,20116.79999998212,20443.09999999404,20753,21057.09999999404,21523.5,21997.19999998808,22322.69999998808,22681.40000000596,23077.09999999404,23408.79999998212,23759.29999998212,24203.09999999404,24569,24941.69999998808,25367,25886.59999999404,26345,28870.90000000596,29739.29999998212,30463.19999998808,30850.79999998212,31238.79999998212,31610.90000000596,31923.40000000596,32311.09999999404,32659,32971.09999999404,33389.29999998212,33817,34180.90000000596,34515.69999998808,34958.5,35322.79999998212,35650.19999998808,36077.40000000596,36518.90000000596,36877.19999998808,37234.90000000596,37561.40000000596,38073.09999999404,38764.90000000596,41496.79999998212,42555.09999999404,43158.90000000596,44651.5,44971,45271,45574.69999998808,45876.79999998212,46265.5,46622.5,46886.69999998808,47220.90000000596,47687,47904.79999998212,48292.79999998212,48628.19999998808,49108.90000000596,49432.90000000596,49823.09999999404,50249,50733.29999998212,51156.90000000596,51498.59999999404,51910.69999998808,52284.90000000596,52681.40000000596,53046.79999998212,53535,54125],"honeypot":0,"survey":"mace","page":9,"trial_type":"survey-mace","trial_index":17,"time_elapsed":683510,"internal_node_id":"0.0-17.0","task_version":"prescreen-v0.3","browser_interactions":0},{"responses":{"01":"No","02":"No","03":"Yes","03_ages_12":"12","03_ages_13":"13","03_ages_14":"14","03_ages_15":"15","03_ages_16":"16","03_ages_17":"17","04":"No","05":"No","06":"Yes","06_ages_17":"17","07":"Yes","07_ages_1":"1","07_ages_2":"2","07_ages_3":"3","07_ages_4":"4","07_ages_5":"5","07_ages_6":"6","07_ages_7":"7","07_ages_8":"8","07_ages_9":"9","07_ages_10":"10","07_ages_11":"11","07_ages_12":"12","07_ages_13":"13","07_ages_14":"14","07_ages_15":"15","07_ages_16":"16","07_ages_17":"17","07_ages_18":"18","08":"Yes","08_ages_1":"1","08_ages_2":"2","08_ages_3":"3","08_ages_4":"4","08_ages_5":"5","08_ages_6":"6","08_ages_7":"7","08_ages_8":"8","08_ages_9":"9","08_ages_10":"10","08_ages_11":"11","08_ages_12":"12","08_ages_13":"13","08_ages_14":"14","08_ages_15":"15","08_ages_16":"16","08_ages_17":"17","08_ages_18":"18"},"rt":59352.80000001192,"item_order":[0,1,2,3,4,5,6,7],"radio_events":[3591.5999999940395,4802.9000000059605,6381.5999999940395,7949.300000011921,15917.59999999404,18263.09999999404,24833.40000000596,30761.20000001788,34457],"checkbox_events":[10239.300000011921,11126,11661.09999999404,12763.200000017881,13167.300000011921,13485.300000011921,19403.09999999404,38412.80000001192,38985.09999999404,39343,40089.09999999404,40485.40000000596,41138.59999999404,41647.20000001788,42147.30000001192,42736.90000000596,43219,44143.30000001192,44506.90000000596,45415.09999999404,45850.59999999404,46240.20000001788,46528.20000001788,47211,48151,48483.30000001192,49175.20000001788,49865,50331,50659,51286.90000000596,51993.20000001788,52312,53151.30000001192,54075.09999999404,54524.80000001192,54935.09999999404,55246.70000001788,55605.09999999404,56645.40000000596,57143.30000001192,57833,58339.09999999404],"key_events":[],"mouse_events":[3591.5999999940395,4802.9000000059605,6381.5999999940395,7949.300000011921,10239.300000011921,10627.300000011921,11126,11661.09999999404,12127.5,12763.200000017881,13167.300000011921,13485.300000011921,15062.800000011921,15917.59999999404,18263.09999999404,19403.09999999404,24833.40000000596,28111.20000001788,28654.80000001192,30761.20000001788,34457,38412.80000001192,38699.20000001788,38985.09999999404,39343,39777.30000001192,40089.09999999404,40485.40000000596,41138.59999999404,41647.20000001788,42147.30000001192,42736.90000000596,43219,44143.30000001192,44506.90000000596,44857,45415.09999999404,45850.59999999404,46240.20000001788,46528.20000001788,46829.80000001192,47211,47567.30000001192,47863,48151,48483.30000001192,49175.20000001788,49865,50331,50659,51286.90000000596,51597.09999999404,51993.20000001788,52312,52599.20000001788,53151.30000001192,53649.40000000596,54075.09999999404,54524.80000001192,54935.09999999404,55246.70000001788,55605.09999999404,56645.40000000596,57143.30000001192,57833,58339.09999999404,59349.20000001788],"honeypot":0,"survey":"mace","page":10,"trial_type":"survey-mace","trial_index":18,"time_elapsed":742866,"internal_node_id":"0.0-18.0","task_version":"prescreen-v0.3","browser_interactions":0,"instructed":0},{"rt":4790.799999982119,"trial_type":"mental-health-alert","trial_index":19,"time_elapsed":747659,"internal_node_id":"0.0-19.0","task_version":"prescreen-v0.3","interactions":"[{\"event\":\"blur\",\"trial\":0,\"time\":1581},{\"event\":\"focus\",\"trial\":0,\"time\":4296}]"}]