[{"view_history":[{"page_index":0,"viewing_time":5372.399999976158},{"page_index":1,"viewing_time":7515.100000023842},{"page_index":2,"viewing_time":6717.800000011921},{"page_index":3,"viewing_time":1967.5999999642372}],"rt":21573.600000023842,"trial_type":"instructions","trial_index":0,"time_elapsed":21669,"internal_node_id":"0.0-0.0","task_version":"prescreen-v0.3"},{"rt":15071.899999976158,"responses":{"age":"27","gender-categorical":"Female","gender-free-response":"","ethnicity":"Hispanic or Latino","race":["White"],"education":"Associate degree"},"trial_type":"survey-demo","trial_index":1,"time_elapsed":36745,"internal_node_id":"0.0-1.0","task_version":"prescreen-v0.3"},{"responses":{"Q15":"3","Q18":"1","Q19":"2","Q21":"3","Q03":"1","Q02":"2","Q11":"1","Q08":"2","Q13":"3","Q01":"2","Q06":"0","Q04":"2","Q16":"3","Q12":"2","Q07":"0","Q20":"0","Q17":"1","Q14":"2","Q09":"1","Q05":"2","Q10":"1"},"rt":192821.5,"item_order":[14,17,18,20,2,1,10,7,12,0,5,3,15,11,6,19,16,13,8,4,9],"radio_events":[13923.900000035763,22395.30000001192,32543.100000023842,41307.5,46955.10000002384,48462.60000002384,54751.90000003576,62571,70491.40000003576,76521.69999998808,80369.5,87760.90000003576,95379,104321.90000003576,112613.10000002384,125450.30000001192,130445.5,134585.80000001192,160147.10000002384,165671,184515.69999998808,191851],"key_events":[],"mouse_events":[13923.900000035763,22395.30000001192,32543.100000023842,41307.5,46955.10000002384,48462.60000002384,54751.90000003576,61490.90000003576,62571,63111.19999998808,70491.40000003576,76521.69999998808,80369.5,87760.90000003576,95379,103793.30000001192,104321.90000003576,112613.10000002384,113119.69999998808,125450.30000001192,126035.40000003576,130445.5,131323.10000002384,134585.80000001192,160147.10000002384,165671,184144.40000003576,184515.69999998808,191851,192818.80000001192],"straightlining":0.38095238095238093,"zigzagging":0.7,"honeypot":0,"survey":"sns","trial_type":"survey-template","trial_index":2,"time_elapsed":229566,"internal_node_id":"0.0-2.0","task_version":"prescreen-v0.3","browser_interactions":0,"infrequency":0},{"responses":{"Q12":"1","Q01":"2","Q08":"3","Q05":"3","Q03":"3","Q02":"1","Q10":"2","Q13":"0","Q06":"2","Q04":"3","Q11":"2","Q07":"3","Q09":"3"},"rt":151731.19999998808,"item_order":[11,0,7,4,2,1,9,12,5,3,10,6,8],"radio_events":[8172.5,20806.69999998808,29526,42644.09999996424,47661.799999952316,54052.09999996424,59992.299999952316,64976.19999998808,71760.5,82065.89999997616,89356.29999995232,141536.29999995232,145226.5,150234.29999995232],"key_events":[],"mouse_events":[8172.5,20806.69999998808,29526,33576.19999998808,34048.799999952316,42644.09999996424,47661.799999952316,54052.09999996424,58979.89999997616,59992.299999952316,64976.19999998808,66303.79999995232,71760.5,82065.89999997616,89356.29999995232,141536.29999995232,145226.5,150234.29999995232,151729.59999996424],"straightlining":0.46153846153846156,"zigzagging":0.5,"honeypot":0,"survey":"bisbas","trial_type":"survey-template","trial_index":3,"time_elapsed":381297,"internal_node_id":"0.0-3.0","task_version":"prescreen-v0.3","browser_interactions":0,"infrequency":0},{"responses":{"Q01":"2","Q02":"2","Q03":"4"},"rt":33004.60000002384,"radio_events":[14519.199999988079,20526.900000035763,23992.100000023842,32160.100000023842],"key_events":[],"mouse_events":[14035.5,14519.199999988079,20526.900000035763,23992.100000023842,32160.100000023842,32655.100000023842,33003.90000003576],"survey":"map","page":1,"trial_type":"survey-map","trial_index":4,"time_elapsed":414303,"internal_node_id":"0.0-4.0","task_version":"prescreen-v0.3","browser_interactions":0},{"responses":{"Q04":"0","Q05":"0","Q06":"2"},"rt":38373.5,"radio_events":[15016.600000023842,29091.100000023842,37506.40000003576],"key_events":[],"mouse_events":[15016.600000023842,29091.100000023842,36967.80000001192,37506.40000003576,38372.80000001192],"survey":"map","page":2,"trial_type":"survey-map","trial_index":5,"time_elapsed":452678,"internal_node_id":"0.0-5.0","task_version":"prescreen-v0.3","browser_interactions":0},{"responses":{"Q07":"4","Q08":"3","Q09":"3"},"rt":38250.30000001192,"radio_events":[18887.30000001192,30193.900000035763,37214.30000001192],"key_events":[],"mouse_events":[18887.30000001192,30193.900000035763,37214.30000001192,38249.5],"survey":"map","page":3,"trial_type":"survey-map","trial_index":6,"time_elapsed":490929,"internal_node_id":"0.0-6.0","task_version":"prescreen-v0.3","browser_interactions":0},{"responses":{"Q10":"2","Q11":"0","Q12":"0","Q13":"0","Q16":"0","Q14":"1","Q15":"0"},"rt":169893.19999998808,"radio_events":[12451.5,36415.19999998808,45809.39999997616,138547.69999998808,147559.19999998808,154973.30000001192,168507.80000001192],"key_events":[],"mouse_events":[11911.5,12451.5,36415.19999998808,45809.39999997616,138547.69999998808,139695.30000001192,147131.89999997616,147559.19999998808,154973.30000001192,168507.80000001192,169160.39999997616,169891.80000001192],"survey":"map","page":4,"trial_type":"survey-map","trial_index":7,"time_elapsed":660784,"internal_node_id":"0.0-7.0","task_version":"prescreen-v0.3","browser_interactions":0,"infrequency":0},{"view_history":[{"page_index":0,"viewing_time":4372.800000011921},{"page_index":1,"viewing_time":9495.400000035763}],"rt":13869.100000023842,"trial_type":"instructions","trial_index":8,"time_elapsed":674653,"internal_node_id":"0.0-8.0","task_version":"prescreen-v0.3"},{"responses":{"01":"Yes","01_ages_7":"7","01_ages_8":"8","01_ages_9":"9","01_ages_10":"10","01_ages_11":"11","01_ages_12":"12","01_ages_13":"13","01_ages_14":"14","01_ages_15":"15","01_ages_16":"16","02":"No","03":"No","04":"Yes","04_ages_5":"5","04_ages_6":"6","04_ages_7":"7","05":"No","06":"Yes","06_ages_7":"7","06_ages_12":"12"},"rt":100162.80000001192,"item_order":[0,1,2,3,4,5],"radio_events":[16556.80000001192,45705.5,53254.60000002384,62828.69999998808,72616.69999998808,78905.90000003576],"checkbox_events":[21967,22867,23587,24036.80000001192,25510.600000023842,27547.100000023842,31889.80000001192,33825.10000002384,34590,37447.60000002384,65247.60000002384,65798.90000003576,66306.30000001192,85386.10000002384,95972.80000001192],"key_events":[],"mouse_events":[0.10000002384185791,16556.80000001192,21967,22867,23587,24036.80000001192,25510.600000023842,26613.30000001192,27547.100000023842,31889.80000001192,33825.10000002384,34590,37447.60000002384,38291.40000003576,44625.40000003576,45705.5,46875.5,53254.60000002384,62828.69999998808,65247.60000002384,65798.90000003576,66306.30000001192,67273.90000003576,72616.69999998808,78905.90000003576,85386.10000002384,95972.80000001192,100158.60000002384],"honeypot":0,"survey":"mace","page":1,"trial_type":"survey-mace","trial_index":9,"time_elapsed":774818,"internal_node_id":"0.0-9.0","task_version":"prescreen-v0.3","browser_interactions":0},{"responses":{"01":"No","02":"No","03":"Yes","03_ages_7":"7","04":"Yes","04_ages_7":"7","05":"No","06":"No","07":"No","08":"No"},"rt":50703.10000002384,"item_order":[0,1,2,3,4,5,6,7],"radio_events":[5031.400000035763,11073,15314.400000035763,31155.100000023842,40999.40000003576,43834.5,47625.90000003576,49932.30000001192],"checkbox_events":[18419.600000023842,33405.30000001192],"key_events":[],"mouse_events":[5031.400000035763,11073,15314.400000035763,18419.600000023842,19634.600000023842,31155.100000023842,33405.30000001192,40999.40000003576,43834.5,47625.90000003576,49932.30000001192,50697.60000002384],"honeypot":0,"survey":"mace","page":2,"trial_type":"survey-mace","trial_index":10,"time_elapsed":825524,"internal_node_id":"0.0-10.0","task_version":"prescreen-v0.3","browser_interactions":0},{"responses":{"01":"No","02":"No","03":"No","04":"No"},"rt":22156.69999998808,"item_order":[0,1,2,3],"radio_events":[5165.699999988079,10262.099999964237,14278.699999988079,17237.5],"checkbox_events":[],"key_events":[],"mouse_events":[1430.5,5165.699999988079,10262.099999964237,14278.699999988079,17237.5,20848.899999976158,22154],"honeypot":0,"survey":"mace","page":3,"trial_type":"survey-mace","trial_index":11,"time_elapsed":847683,"internal_node_id":"0.0-11.0","task_version":"prescreen-v0.3","browser_interactions":0},{"responses":{"01":"No","02":"No"},"rt":51287.299999952316,"item_order":[0,1],"radio_events":[20414.299999952316,50127],"checkbox_events":[],"key_events":[],"mouse_events":[20414.299999952316,50127,51285.799999952316],"honeypot":0,"survey":"mace","page":4,"trial_type":"survey-mace","trial_index":12,"time_elapsed":898970,"internal_node_id":"0.0-12.0","task_version":"prescreen-v0.3","browser_interactions":0},{"responses":{"01":"No","02":"No","03":"No","04":"No","05":"No"},"rt":73837.30000001192,"item_order":[0,1,2,3,4],"radio_events":[42725.90000003576,46652.19999998808,55618.90000003576,71223.40000003576,72798.40000003576],"checkbox_events":[],"key_events":[],"mouse_events":[42725.90000003576,46652.19999998808,55618.90000003576,70098.30000001192,71223.40000003576,72798.40000003576,73833.5],"honeypot":0,"survey":"mace","page":5,"trial_type":"survey-mace","trial_index":13,"time_elapsed":972807,"internal_node_id":"0.0-13.0","task_version":"prescreen-v0.3","browser_interactions":0},{"responses":{"01":"Yes","01_ages_13":"13","01_ages_14":"14","01_ages_15":"15","02":"No","03":"Yes","03_ages_15":"15","03_ages_16":"16","04":"No","05":"No"},"rt":101353.19999998808,"item_order":[0,1,2,3,4],"radio_events":[17859.19999998808,26544.5,46121.69999998808,53793.39999997616,57787.30000001192,86825.10000002384,96657.89999997616],"checkbox_events":[30707.100000023842,31179.69999998808,31618.5,32113.600000023842,34712.39999997616,98975.60000002384,100246.80000001192],"key_events":[],"mouse_events":[17859.19999998808,26544.5,30707.100000023842,31179.69999998808,31618.5,32113.600000023842,34712.39999997616,46121.69999998808,53793.39999997616,57787.30000001192,86825.10000002384,96241.69999998808,96657.89999997616,98975.60000002384,100246.80000001192,101349.80000001192],"honeypot":0,"survey":"mace","page":6,"trial_type":"survey-mace","trial_index":14,"time_elapsed":1074159,"internal_node_id":"0.0-14.0","task_version":"prescreen-v0.3","browser_interactions":0},{"responses":{"01":"No","02":"No","03":"No","04":"No","05":"No","06":"No","07":"No"},"rt":34390.799999952316,"item_order":[0,1,2,3,4,5,6],"radio_events":[8070.799999952316,11423.399999976158,15878.599999964237,20986.399999976158,28074.299999952316,31179.399999976158,33497],"checkbox_events":[],"key_events":[],"mouse_events":[8070.799999952316,11423.399999976158,15878.599999964237,20986.399999976158,28074.299999952316,31179.399999976158,33497,34385.799999952316],"honeypot":0,"survey":"mace","page":7,"trial_type":"survey-mace","trial_index":15,"time_elapsed":1108552,"internal_node_id":"0.0-15.0","task_version":"prescreen-v0.3","browser_interactions":0},{"responses":{"01":"No","02":"No","03":"No","04":"No"},"rt":46853,"item_order":[0,1,2,3],"radio_events":[14854.800000011921,23437.69999998808,28500.399999976158,45893.69999998808],"checkbox_events":[],"key_events":[],"mouse_events":[14854.800000011921,16293.599999964237,22740,23437.69999998808,24225.099999964237,28500.399999976158,45331.09999996424,45893.69999998808,46850],"honeypot":0,"survey":"mace","page":8,"trial_type":"survey-mace","trial_index":16,"time_elapsed":1155406,"internal_node_id":"0.0-16.0","task_version":"prescreen-v0.3","browser_interactions":0},{"responses":{"01":"Yes","01_ages_1":"1","01_ages_2":"2","01_ages_3":"3","01_ages_4":"4","01_ages_5":"5","01_ages_6":"6","01_ages_7":"7","01_ages_8":"8","01_ages_9":"9","01_ages_10":"10","01_ages_11":"11","01_ages_12":"12","01_ages_13":"13","01_ages_14":"14","01_ages_15":"15","01_ages_16":"16","01_ages_17":"17","01_ages_18":"18","02":"Yes","02_ages_1":"1","02_ages_2":"2","02_ages_3":"3","02_ages_4":"4","02_ages_5":"5","02_ages_6":"6","02_ages_7":"7","02_ages_8":"8","02_ages_9":"9","02_ages_10":"10","02_ages_11":"11","02_ages_12":"12","02_ages_13":"13","02_ages_14":"14","02_ages_15":"15","02_ages_16":"16","02_ages_17":"17","02_ages_18":"18","03":"Yes","03_ages_1":"1","03_ages_2":"2","03_ages_3":"3","03_ages_4":"4","03_ages_5":"5","03_ages_6":"6","03_ages_7":"7","03_ages_8":"8","03_ages_9":"9","03_ages_10":"10","03_ages_11":"11","03_ages_12":"12","03_ages_13":"13","03_ages_14":"14","03_ages_15":"15","03_ages_16":"16","03_ages_17":"17","03_ages_18":"18","04":"Yes","04_ages_1":"1","04_ages_2":"2","04_ages_3":"3","04_ages_4":"4","04_ages_5":"5","04_ages_6":"6","04_ages_7":"7","04_ages_8":"8","04_ages_9":"9","04_ages_10":"10","04_ages_11":"11","04_ages_12":"12","04_ages_13":"13","04_ages_14":"14","04_ages_15":"15","04_ages_16":"16","04_ages_17":"17","04_ages_18":"18"},"rt":87605.30000001192,"item_order":[0,1,2,3],"radio_events":[8105.699999988079,34769.69999998808,52388,71480],"checkbox_events":[9917,10400.900000035763,11165.900000035763,11582.300000011921,12707.300000011921,13213.800000011921,14305,19941.30000001192,24565.400000035763,25094.100000023842,25566.69999998808,26477.80000001192,27940.80000001192,28424.400000035763,28930.600000023842,29515.600000023842,30235.600000023842,30899.400000035763,36772.30000001192,37177,37616,38054.69999998808,38483.5,38932.30000001192,39371.10000002384,39820.80000001192,40271,40788.40000003576,41328.60000002384,42127.60000002384,42566.19999998808,43005.10000002384,43398.80000001192,46042.60000002384,47066.40000003576,48056.30000001192,53321.80000001192,54064.30000001192,54446.90000003576,55256.80000001192,56033.19999998808,57699.5,58328.19999998808,59082.10000002384,59835.90000003576,60443.30000001192,60882.19999998808,61399.69999998808,61906,62402.19999998808,62929.69999998808,63379.69999998808,64403.5,65112.5,76273,77004.10000002384,77420.40000003576,78016.80000001192,78477.90000003576,79434.19999998808,79839.19999998808,80356.69999998808,80885.60000002384,81380.60000002384,82460.69999998808,82944.19999998808,83452.10000002384,84283.30000001192,85284.60000002384,85892,86308.30000001192,86814.69999998808],"key_events":[],"mouse_events":[8105.699999988079,9917,10400.900000035763,11165.900000035763,11582.300000011921,12054.699999988079,12707.300000011921,13213.800000011921,13663.5,14305,19941.30000001192,24565.400000035763,25094.100000023842,25566.69999998808,26477.80000001192,27209.19999998808,27940.80000001192,28424.400000035763,28930.600000023842,29515.600000023842,30235.600000023842,30899.400000035763,34769.69999998808,36772.30000001192,37177,37616,38054.69999998808,38483.5,38932.30000001192,39371.10000002384,39820.80000001192,40271,40788.40000003576,41328.60000002384,41756.19999998808,42127.60000002384,42566.19999998808,43005.10000002384,43398.80000001192,44456.40000003576,44794,45401.30000001192,46042.60000002384,46425.19999998808,47066.40000003576,48056.30000001192,52388,53321.80000001192,53692.80000001192,54064.30000001192,54446.90000003576,54874.40000003576,55256.80000001192,55661.80000001192,56033.19999998808,56494.40000003576,56854.60000002384,57699.5,58328.19999998808,59082.10000002384,59835.90000003576,60443.30000001192,60882.19999998808,61399.69999998808,61906,62402.19999998808,62929.69999998808,63379.69999998808,63807.19999998808,64403.5,65112.5,71480,76273,77004.10000002384,77420.40000003576,78016.80000001192,78477.90000003576,79006.69999998808,79434.19999998808,79839.19999998808,80356.69999998808,80885.60000002384,81380.60000002384,82460.69999998808,82944.19999998808,83452.10000002384,84283.30000001192,84733.30000001192,85284.60000002384,85892,86308.30000001192,86814.69999998808,87602.5],"honeypot":0,"survey":"mace","page":9,"trial_type":"survey-mace","trial_index":17,"time_elapsed":1243011,"internal_node_id":"0.0-17.0","task_version":"prescreen-v0.3","browser_interactions":0},{"responses":{"01":"No","02":"No","03":"No","04":"No","05":"No","06":"Yes","06_ages_17":"17","07":"Yes","07_ages_1":"1","07_ages_2":"2","07_ages_3":"3","07_ages_4":"4","07_ages_5":"5","07_ages_6":"6","07_ages_7":"7","07_ages_8":"8","07_ages_9":"9","07_ages_10":"10","07_ages_11":"11","07_ages_12":"12","07_ages_13":"13","07_ages_14":"14","07_ages_15":"15","07_ages_16":"16","07_ages_17":"17","07_ages_18":"18","08":"Yes","08_ages_1":"1","08_ages_2":"2","08_ages_3":"3","08_ages_4":"4","08_ages_5":"5","08_ages_6":"6","08_ages_7":"7","08_ages_8":"8","08_ages_9":"9","08_ages_10":"10","08_ages_11":"11","08_ages_12":"12","08_ages_13":"13","08_ages_14":"14","08_ages_15":"15","08_ages_16":"16","08_ages_17":"17","08_ages_18":"18"},"rt":88136.10000002384,"item_order":[0,1,2,3,4,5,6,7],"radio_events":[11604.200000047684,20087.100000023842,25644.80000001192,28907.400000035763,36760.10000002384,40956.700000047684,47910.80000001192,73302],"checkbox_events":[42745.5,58732.700000047684,59734,60161.30000001192,60600.200000047684,61377.60000002384,61882.700000047684,62310.30000001192,62692.60000002384,63154.10000002384,63581.40000003576,64031.60000002384,64537.80000001192,64954.200000047684,65394.200000047684,68036.70000004768,68713.10000002384,69263.10000002384,69746.80000001192,74888.30000001192,75372.10000002384,75822.10000002384,76407.10000002384,76869.70000004768,77520.90000003576,78263.40000003576,79343.60000002384,80615,81166.30000001192,81919.90000003576,82651.20000004768,84001.20000004768,84777.60000002384,85329,85801.30000001192,86633.90000003576,87320.30000001192],"key_events":[],"mouse_events":[11604.200000047684,20087.100000023842,25644.80000001192,28907.400000035763,36760.10000002384,40956.700000047684,42745.5,43229.40000003576,47910.80000001192,58732.700000047684,59216.30000001192,59734,60161.30000001192,60600.200000047684,61016.60000002384,61377.60000002384,61882.700000047684,62310.30000001192,62692.60000002384,63154.10000002384,63581.40000003576,64031.60000002384,64537.80000001192,64954.200000047684,65394.200000047684,65855.5,66293,66776.90000003576,67272.90000003576,68036.70000004768,68713.10000002384,69263.10000002384,69746.80000001192,72840.80000001192,73302,74888.30000001192,75372.10000002384,75822.10000002384,76407.10000002384,76869.70000004768,77520.90000003576,78263.40000003576,79343.60000002384,80029.90000003576,80615,81166.30000001192,81919.90000003576,82651.20000004768,84001.20000004768,84777.60000002384,85329,85801.30000001192,86206.5,86633.90000003576,87320.30000001192,88130.70000004768],"honeypot":0,"survey":"mace","page":10,"trial_type":"survey-mace","trial_index":18,"time_elapsed":1331147,"internal_node_id":"0.0-18.0","task_version":"prescreen-v0.3","browser_interactions":0,"instructed":0},{"rt":8225.800000011921,"trial_type":"mental-health-alert","trial_index":19,"time_elapsed":1339375,"internal_node_id":"0.0-19.0","task_version":"prescreen-v0.3","interactions":"[]"}]