[{"view_history":[{"page_index":0,"viewing_time":3373.3000000044703},{"page_index":1,"viewing_time":2635},{"page_index":2,"viewing_time":3464},{"page_index":3,"viewing_time":1289.8999999985099}],"rt":10763,"trial_type":"instructions","trial_index":0,"time_elapsed":10779,"internal_node_id":"0.0-0.0","task_version":"prescreen-v0.3"},{"rt":26763.39999999851,"responses":{"age":"19","gender-categorical":"Other","gender-free-response":"Non-binary","ethnicity":"Not Hispanic or Latino","race":["Asian","Native Hawaiian or other Pacific Islander","Black or African American"],"education":"Some college"},"trial_type":"survey-demo","trial_index":1,"time_elapsed":37549,"internal_node_id":"0.0-1.0","task_version":"prescreen-v0.3"},{"responses":{"Q16":"2","Q14":"2","Q08":"1","Q03":"0","Q17":"2","Q10":"1","Q15":"3","Q12":"2","Q09":"0","Q07":"2","Q18":"0","Q13":"2","Q20":"0","Q11":"0","Q04":"2","Q01":"0","Q19":"2","Q21":"3","Q06":"0","Q05":"0","Q02":"0"},"rt":111887.29999999702,"item_order":[15,13,7,2,16,9,14,11,8,6,17,12,19,10,3,0,18,20,5,4,1],"radio_events":[9488.5,13183.10000000149,16406.39999999851,19666.10000000149,23081.60000000149,27386.70000000298,31827.5,39019.29999999702,45117.5,52172.5,60339.70000000298,64788.60000000149,68488.20000000298,70886.70000000298,74974.79999999702,76943.79999999702,81704.89999999851,87497.60000000149,94066.20000000298,98345,108907.79999999702],"key_events":[],"mouse_events":[9488.5,13183.10000000149,16406.39999999851,19666.10000000149,23081.60000000149,27386.70000000298,31827.5,39019.29999999702,45117.5,51588.20000000298,52172.5,60339.70000000298,64788.60000000149,68488.20000000298,70886.70000000298,74974.79999999702,76943.79999999702,81704.89999999851,87497.60000000149,94066.20000000298,98345,108131.29999999702,108907.79999999702,111882.60000000149],"straightlining":0.42857142857142855,"zigzagging":0.3,"honeypot":0,"survey":"sns","trial_type":"survey-template","trial_index":2,"time_elapsed":149445,"internal_node_id":"0.0-2.0","task_version":"prescreen-v0.3","browser_interactions":0,"infrequency":0},{"responses":{"Q01":"3","Q05":"3","Q03":"3","Q08":"3","Q02":"3","Q13":"0","Q07":"3","Q09":"2","Q06":"2","Q12":"1","Q10":"2","Q04":"3","Q11":"2"},"rt":49687.39999999851,"item_order":[0,4,2,7,1,12,6,8,5,11,9,3,10],"radio_events":[3536.2000000029802,8994.39999999851,13139.10000000149,17468.10000000149,22292.89999999851,25355.70000000298,27786,30580.60000000149,33548,38501.20000000298,41515.60000000149,44162.79999999702,48995.79999999702],"key_events":[],"mouse_events":[3536.2000000029802,8994.39999999851,13139.10000000149,17468.10000000149,21628.5,22292.89999999851,25355.70000000298,27786,30580.60000000149,33548,38501.20000000298,41515.60000000149,44162.79999999702,48995.79999999702,49684.70000000298],"straightlining":0.5384615384615384,"zigzagging":0.5833333333333334,"honeypot":0,"survey":"bisbas","trial_type":"survey-template","trial_index":3,"time_elapsed":199137,"internal_node_id":"0.0-3.0","task_version":"prescreen-v0.3","browser_interactions":0,"infrequency":0},{"responses":{"Q01":"4","Q02":"3","Q03":"4"},"rt":17121.80000000447,"radio_events":[6853.30000000447,11181.60000000149,16303.70000000298],"key_events":[],"mouse_events":[6276.80000000447,6853.30000000447,11181.60000000149,16303.70000000298,17120.30000000447],"survey":"map","page":1,"trial_type":"survey-map","trial_index":4,"time_elapsed":216265,"internal_node_id":"0.0-4.0","task_version":"prescreen-v0.3","browser_interactions":0},{"responses":{"Q04":"2","Q05":"2","Q06":"3"},"rt":17444.89999999851,"radio_events":[5995.60000000149,10467.5,16746.39999999851],"key_events":[],"mouse_events":[5995.60000000149,10467.5,15068.30000000447,16113.5,16746.39999999851,17443.5],"survey":"map","page":2,"trial_type":"survey-map","trial_index":5,"time_elapsed":233714,"internal_node_id":"0.0-5.0","task_version":"prescreen-v0.3","browser_interactions":0},{"responses":{"Q07":"4","Q08":"4","Q09":"2"},"rt":14670.39999999851,"radio_events":[6364.39999999851,10676.70000000298,13732.29999999702],"key_events":[],"mouse_events":[5699.79999999702,6364.39999999851,10676.70000000298,13732.29999999702,14669.10000000149],"survey":"map","page":3,"trial_type":"survey-map","trial_index":6,"time_elapsed":248389,"internal_node_id":"0.0-6.0","task_version":"prescreen-v0.3","browser_interactions":0},{"responses":{"Q10":"3","Q11":"2","Q12":"1","Q13":"2","Q16":"0","Q14":"1","Q15":"1"},"rt":47266.79999999702,"radio_events":[7677.5999999940395,11442,15978.79999999702,30263.29999999702,33743.29999999702,41664.89999999851,46427.09999999404],"key_events":[],"mouse_events":[7677.5999999940395,11442,15978.79999999702,30263.29999999702,33743.29999999702,41664.89999999851,46427.09999999404,47264.29999999702],"survey":"map","page":4,"trial_type":"survey-map","trial_index":7,"time_elapsed":295661,"internal_node_id":"0.0-7.0","task_version":"prescreen-v0.3","browser_interactions":0,"infrequency":0},{"view_history":[{"page_index":0,"viewing_time":2235.1999999955297},{"page_index":1,"viewing_time":4028.5}],"rt":6264.5,"trial_type":"instructions","trial_index":8,"time_elapsed":301928,"internal_node_id":"0.0-8.0","task_version":"prescreen-v0.3"},{"responses":{"01":"Yes","01_ages_7":"7","01_ages_8":"8","01_ages_9":"9","01_ages_10":"10","01_ages_11":"11","01_ages_12":"12","01_ages_13":"13","01_ages_14":"14","01_ages_15":"15","01_ages_16":"16","01_ages_17":"17","01_ages_18":"18","02":"Yes","02_ages_7":"7","02_ages_8":"8","02_ages_9":"9","02_ages_10":"10","02_ages_11":"11","02_ages_12":"12","02_ages_13":"13","02_ages_14":"14","02_ages_15":"15","02_ages_16":"16","02_ages_17":"17","02_ages_18":"18","03":"Yes","03_ages_6":"6","03_ages_7":"7","03_ages_8":"8","03_ages_9":"9","03_ages_10":"10","03_ages_11":"11","03_ages_12":"12","03_ages_13":"13","04":"No","05":"No","06":"Yes","06_ages_7":"7","06_ages_8":"8","06_ages_9":"9","06_ages_10":"10","06_ages_11":"11","06_ages_12":"12","06_ages_13":"13","06_ages_14":"14","06_ages_17":"17","06_ages_18":"18"},"rt":96308.39999999851,"item_order":[0,1,2,3,4,5],"radio_events":[13935.39999999851,36754.39999999851,56148.69999999553,71814.79999999702,75647,78810.5],"checkbox_events":[21212.69999999553,22493.79999999702,23182.59999999404,24327.39999999851,25653.29999999702,26277.89999999851,26878.69999999553,27447.29999999702,27976.09999999404,28496.59999999404,29629.69999999553,32401.29999999702,38633,39185.39999999851,39698.09999999404,40531.29999999702,41139.79999999702,42433.59999999404,43034.69999999553,46328.89999999851,51378.29999999702,51963.19999999553,52756,53300.69999999553,58415.59999999404,59060.29999999702,59588.79999999702,60125.39999999851,60654,61150.69999999553,61695.19999999553,62392.19999999553,82106.19999999553,82762.79999999702,83375.19999999553,83951.89999999851,84496.29999999702,85041.09999999404,86130.39999999851,90467.29999999702,93310.39999999851,93847.29999999702],"key_events":[],"mouse_events":[0.19999999552965164,13935.39999999851,21212.69999999553,21756.59999999404,22493.79999999702,23182.59999999404,24327.39999999851,25653.29999999702,26277.89999999851,26878.69999999553,27447.29999999702,27976.09999999404,28496.59999999404,29101.29999999702,29629.69999999553,32401.29999999702,35585,36754.39999999851,38633,39185.39999999851,39698.09999999404,40531.29999999702,41139.79999999702,41704.69999999553,42433.59999999404,43034.69999999553,46328.89999999851,51378.29999999702,51963.19999999553,52756,53300.69999999553,56148.69999999553,58415.59999999404,59060.29999999702,59588.79999999702,60125.39999999851,60654,61150.69999999553,61695.19999999553,62392.19999999553,71814.79999999702,75647,78810.5,82106.19999999553,82762.79999999702,83375.19999999553,83951.89999999851,84496.29999999702,85041.09999999404,85593.79999999702,86130.39999999851,90467.29999999702,93310.39999999851,93847.29999999702,96302],"honeypot":0,"survey":"mace","page":1,"trial_type":"survey-mace","trial_index":9,"time_elapsed":398246,"internal_node_id":"0.0-9.0","task_version":"prescreen-v0.3","browser_interactions":0},{"responses":{"01":"Yes","01_ages_7":"7","01_ages_8":"8","01_ages_9":"9","01_ages_10":"10","02":"No","03":"Yes","03_ages_5":"5","03_ages_6":"6","03_ages_7":"7","03_ages_8":"8","03_ages_9":"9","03_ages_10":"10","04":"No","04_ages_5":"5","04_ages_6":"6","04_ages_7":"7","04_ages_8":"8","04_ages_9":"9","05":"Yes","05_ages_5":"5","05_ages_6":"6","05_ages_7":"7","05_ages_8":"8","05_ages_9":"9","05_ages_10":"10","06":"No","07":"No","08":"No"},"rt":71801.69999999553,"item_order":[0,1,2,3,4,5,6,7],"radio_events":[2929.1999999955297,24451.19999999553,26713.39999999851,35698.69999999553,46754,49493.10000000149,58887.69999999553,61181.69999999553,62502.29999999702],"checkbox_events":[4034.60000000149,4531.10000000149,5059.79999999702,5596.29999999702,30649.19999999553,31425.89999999851,31994.10000000149,32667.19999999553,37416.60000000149,38001.10000000149,39538.89999999851,40556.69999999553,41212.79999999702,41721.19999999553,42298.19999999553,43684,45156.5,67344.69999999553,67848.69999999553,68417.69999999553,69382.79999999702,69831.10000000149,70415.79999999702],"key_events":[],"mouse_events":[2929.1999999955297,4034.60000000149,4531.10000000149,5059.79999999702,5596.29999999702,24451.19999999553,26713.39999999851,30649.19999999553,31425.89999999851,31994.10000000149,32667.19999999553,33592.19999999553,34577.10000000149,35698.69999999553,37416.60000000149,38001.10000000149,39538.89999999851,40043.19999999553,40556.69999999553,41212.79999999702,41721.19999999553,42298.19999999553,43684,45156.5,46754,49493.10000000149,58335.10000000149,58887.69999999553,59976.79999999702,61181.69999999553,62502.29999999702,67344.69999999553,67848.69999999553,68417.69999999553,68910.29999999702,69382.79999999702,69831.10000000149,70415.79999999702,71793.69999999553],"honeypot":0,"survey":"mace","page":2,"trial_type":"survey-mace","trial_index":10,"time_elapsed":470110,"internal_node_id":"0.0-10.0","task_version":"prescreen-v0.3","browser_interactions":0},{"responses":{"01":"Yes","01_ages_6":"6","01_ages_7":"7","01_ages_8":"8","01_ages_9":"9","01_ages_10":"10","02":"No","03":"No","04":"No"},"rt":25898,"item_order":[0,1,2,3],"radio_events":[12074.29999999702,13644,15758.69999999553,16852.19999999553],"checkbox_events":[21805,22485.89999999851,23222.59999999404,23959.39999999851,24620.19999999553],"key_events":[],"mouse_events":[12074.29999999702,13644,15758.69999999553,16852.19999999553,21805,22485.89999999851,23222.59999999404,23959.39999999851,24620.19999999553,25893.59999999404],"honeypot":0,"survey":"mace","page":3,"trial_type":"survey-mace","trial_index":11,"time_elapsed":496014,"internal_node_id":"0.0-11.0","task_version":"prescreen-v0.3","browser_interactions":0},{"responses":{"01":"No","02":"No"},"rt":11076.10000000149,"item_order":[0,1],"radio_events":[9431.89999999851,10489.10000000149],"checkbox_events":[],"key_events":[],"mouse_events":[9431.89999999851,10489.10000000149,11073.70000000298],"honeypot":0,"survey":"mace","page":4,"trial_type":"survey-mace","trial_index":12,"time_elapsed":507095,"internal_node_id":"0.0-12.0","task_version":"prescreen-v0.3","browser_interactions":0},{"responses":{"01":"Yes","01_ages_5":"5","01_ages_6":"6","01_ages_7":"7","01_ages_8":"8","01_ages_9":"9","01_ages_10":"10","01_ages_17":"17","02":"Yes","02_ages_5":"5","02_ages_6":"6","02_ages_7":"7","02_ages_8":"8","02_ages_9":"9","02_ages_10":"10","03":"Yes","03_ages_5":"5","03_ages_6":"6","03_ages_7":"7","03_ages_8":"8","03_ages_9":"9","03_ages_10":"10","04":"No","05":"No"},"rt":73605.79999999702,"item_order":[0,1,2,3,4],"radio_events":[25657.39999999851,39747.69999999553,43347.79999999702,71185.19999999553,72466.59999999404],"checkbox_events":[27282.89999999851,27835.79999999702,28536.59999999404,29081,30178.19999999553,31371.19999999553,34386.19999999553,44821.39999999851,46090.59999999404,46747.39999999851,51608.39999999851,53046.09999999404,54543.69999999553,64298.39999999851,64927.69999999553,65471.29999999702,66080,66592.69999999553,67313.89999999851],"key_events":[],"mouse_events":[25657.39999999851,27282.89999999851,27835.79999999702,28536.59999999404,29081,29585.5,30178.19999999553,30770.5,31371.19999999553,34386.19999999553,39747.69999999553,43347.79999999702,44821.39999999851,45574.19999999553,46090.59999999404,46747.39999999851,51608.39999999851,53046.09999999404,53678.79999999702,54543.69999999553,64298.39999999851,64927.69999999553,65471.29999999702,66080,66592.69999999553,67313.89999999851,71185.19999999553,72466.59999999404,73600],"honeypot":0,"survey":"mace","page":5,"trial_type":"survey-mace","trial_index":13,"time_elapsed":580709,"internal_node_id":"0.0-13.0","task_version":"prescreen-v0.3","browser_interactions":0},{"responses":{"01":"Yes","01_ages_7":"7","01_ages_8":"8","01_ages_9":"9","01_ages_10":"10","01_ages_11":"11","01_ages_12":"12","01_ages_13":"13","01_ages_14":"14","01_ages_15":"15","01_ages_16":"16","01_ages_17":"17","02":"Yes","02_ages_7":"7","02_ages_8":"8","02_ages_9":"9","02_ages_10":"10","02_ages_11":"11","02_ages_12":"12","02_ages_13":"13","02_ages_14":"14","02_ages_15":"15","02_ages_16":"16","02_ages_17":"17","03":"Yes","03_ages_7":"7","03_ages_8":"8","03_ages_9":"9","03_ages_10":"10","03_ages_11":"11","03_ages_12":"12","03_ages_13":"13","03_ages_14":"14","03_ages_15":"15","03_ages_16":"16","03_ages_17":"17","03_ages_18":"18","04":"Yes","04_ages_13":"13","04_ages_14":"14","04_ages_15":"15","05":"Yes","05_ages_13":"13","05_ages_14":"14","05_ages_15":"15","05_ages_17":"17"},"rt":104362.69999999553,"item_order":[0,1,2,3,4],"radio_events":[4308.89999999851,8276.5,10299.09999999404,12494.59999999404,16678.5],"checkbox_events":[18676.89999999851,19333.5,21039.39999999851,28407.09999999404,40810.69999999553,41419.39999999851,42036.09999999404,42532.59999999404,43109.09999999404,43677.69999999553,44258.59999999404,45604,46276.89999999851,46957.5,47638.39999999851,55338.59999999404,55979.09999999404,56479.5,57384.59999999404,58185.59999999404,58754.39999999851,59323.09999999404,59916,60468.69999999553,60993.19999999553,61481.69999999553,61970.29999999702,65827.5,71166.59999999404,71615.39999999851,72127.89999999851,72632.59999999404,73104.89999999851,73633.69999999553,74106.09999999404,75239.5,76232.29999999702,76857.19999999553,77866.39999999851,79200,86432,86920.59999999404,87477,88846.19999999553,89927.79999999702,90488.5,91974.19999999553,98210,98802.89999999851],"key_events":[],"mouse_events":[4308.89999999851,8276.5,10299.09999999404,12494.59999999404,15685.19999999553,16678.5,18676.89999999851,19333.5,21039.39999999851,28407.09999999404,40810.69999999553,41419.39999999851,42036.09999999404,42532.59999999404,43109.09999999404,43677.69999999553,44258.59999999404,45099.59999999404,45604,46276.89999999851,46957.5,47638.39999999851,55338.59999999404,55979.09999999404,56479.5,57384.59999999404,58185.59999999404,58754.39999999851,59323.09999999404,59916,60468.69999999553,60993.19999999553,61481.69999999553,61970.29999999702,65827.5,70072.79999999702,70726.09999999404,71166.59999999404,71615.39999999851,72127.89999999851,72632.59999999404,73104.89999999851,73633.69999999553,74106.09999999404,74614.69999999553,75239.5,75703.89999999851,76232.29999999702,76857.19999999553,77378.29999999702,77866.39999999851,78427.09999999404,79200,86432,86920.59999999404,87477,88846.19999999553,89375.09999999404,89927.79999999702,90488.5,91974.19999999553,98210,98802.89999999851,104356.89999999851],"honeypot":0,"survey":"mace","page":6,"trial_type":"survey-mace","trial_index":14,"time_elapsed":685081,"internal_node_id":"0.0-14.0","task_version":"prescreen-v0.3","browser_interactions":0},{"responses":{"01":"No","02":"Yes","02_ages_17":"17","03":"Yes","03_ages_14":"14","03_ages_15":"15","04":"No","05":"No","06":"Yes","06_ages_17":"17","07":"Yes","07_ages_17":"17"},"rt":49929.70000000298,"item_order":[0,1,2,3,4,5,6],"radio_events":[8359.39999999851,10285.39999999851,20953,32224.80000000447,33802.39999999851,35364.39999999851,39661.10000000149],"checkbox_events":[13192.30000000447,26370.70000000298,27067.60000000149,37466.70000000298,42196.20000000298],"key_events":[],"mouse_events":[8359.39999999851,10285.39999999851,13192.30000000447,20953,26370.70000000298,27067.60000000149,32224.80000000447,33802.39999999851,35364.39999999851,37466.70000000298,39661.10000000149,42196.20000000298,49921.39999999851],"honeypot":0,"survey":"mace","page":7,"trial_type":"survey-mace","trial_index":15,"time_elapsed":735019,"internal_node_id":"0.0-15.0","task_version":"prescreen-v0.3","browser_interactions":0},{"responses":{"01":"No","02":"Yes","02_ages_7":"7","02_ages_8":"8","02_ages_9":"9","02_ages_10":"10","02_ages_11":"11","02_ages_12":"12","02_ages_13":"13","03":"Yes","03_ages_7":"7","03_ages_8":"8","03_ages_9":"9","03_ages_10":"10","03_ages_11":"11","03_ages_12":"12","03_ages_13":"13","03_ages_14":"14","03_ages_15":"15","03_ages_16":"16","03_ages_17":"17","03_ages_18":"18","04":"Yes","04_ages_7":"7","04_ages_8":"8","04_ages_9":"9","04_ages_10":"10"},"rt":47965.39999999851,"item_order":[0,1,2,3],"radio_events":[10674,13308.59999999404,25628.39999999851,42342.69999999553],"checkbox_events":[18889.79999999702,19410.19999999553,20002.89999999851,20523.5,21060.19999999553,21620.69999999553,22165,30429.5,30893.89999999851,31418.5,31923.29999999702,32411.5,32916.19999999553,34005.39999999851,34590,35675.09999999404,36187.5,37204.89999999851,37793.89999999851,44204.09999999404,44869.39999999851,45373.89999999851,45990.39999999851],"key_events":[],"mouse_events":[10674,13308.59999999404,18889.79999999702,19410.19999999553,20002.89999999851,20523.5,21060.19999999553,21620.69999999553,22165,25628.39999999851,30429.5,30893.89999999851,31418.5,31923.29999999702,32411.5,32916.19999999553,34005.39999999851,34590,35086.5,35675.09999999404,36187.5,36732.19999999553,37204.89999999851,37793.89999999851,42342.69999999553,44204.09999999404,44869.39999999851,45373.89999999851,45990.39999999851,47961],"honeypot":0,"survey":"mace","page":8,"trial_type":"survey-mace","trial_index":16,"time_elapsed":782991,"internal_node_id":"0.0-16.0","task_version":"prescreen-v0.3","browser_interactions":0},{"responses":{"01":"Yes","01_ages_5":"5","01_ages_6":"6","01_ages_7":"7","01_ages_8":"8","01_ages_9":"9","01_ages_10":"10","01_ages_11":"11","01_ages_12":"12","01_ages_13":"13","01_ages_14":"14","01_ages_15":"15","01_ages_16":"16","01_ages_17":"17","01_ages_18":"18","02":"Yes","02_ages_5":"5","02_ages_6":"6","02_ages_7":"7","02_ages_8":"8","02_ages_9":"9","02_ages_10":"10","02_ages_11":"11","02_ages_12":"12","02_ages_15":"15","02_ages_16":"16","02_ages_17":"17","02_ages_18":"18","03":"Yes","03_ages_1":"1","03_ages_2":"2","03_ages_3":"3","03_ages_4":"4","03_ages_5":"5","03_ages_6":"6","03_ages_7":"7","03_ages_8":"8","03_ages_9":"9","03_ages_10":"10","03_ages_11":"11","03_ages_12":"12","03_ages_13":"13","03_ages_14":"14","03_ages_15":"15","03_ages_16":"16","03_ages_17":"17","03_ages_18":"18","04":"Yes","04_ages_1":"1","04_ages_2":"2","04_ages_3":"3","04_ages_4":"4","04_ages_5":"5","04_ages_6":"6","04_ages_7":"7","04_ages_8":"8","04_ages_9":"9","04_ages_10":"10","04_ages_11":"11","04_ages_12":"12","04_ages_13":"13","04_ages_14":"14","04_ages_15":"15","04_ages_16":"16","04_ages_17":"17","04_ages_18":"18"},"rt":76342.39999999851,"item_order":[0,1,2,3],"radio_events":[3477,24052.30000000447,25121.30000000447,30062.5],"checkbox_events":[10708.80000000447,11165.80000000447,11758.39999999851,12911.70000000298,13696.60000000149,14685.80000000447,15206.20000000298,15790.80000000447,16527.89999999851,17064.60000000149,17737.39999999851,18398.20000000298,19030.60000000149,19759.39999999851,34550.89999999851,34999.39999999851,36012.39999999851,36997.10000000149,37542,38158.39999999851,38927,39512.10000000149,40100.5,41285.70000000298,41910.5,42487.30000000447,43039.70000000298,43656.39999999851,44229.10000000149,44765.70000000298,45374.30000000447,46511.5,50030.89999999851,50623.39999999851,51608.30000000447,52289.10000000149,52917.60000000149,53534.30000000447,54087.10000000149,54615.39999999851,55208.10000000149,55800.5,56385,56949.60000000149,58070.89999999851,58655.10000000149,59215.60000000149,59800.10000000149,60529.10000000149,61117.39999999851,65736.70000000298,66249.20000000298,66793.80000000447,67338.39999999851,67898.70000000298,68491.20000000298,69076.30000000447,70336.89999999851,73219.39999999851,73735.89999999851,74320.39999999851,74832.80000000447],"key_events":[],"mouse_events":[3477,10708.80000000447,11165.80000000447,11758.39999999851,12270.70000000298,12911.70000000298,13696.60000000149,14237.10000000149,14685.80000000447,15206.20000000298,15790.80000000447,16527.89999999851,17064.60000000149,17737.39999999851,18398.20000000298,19030.60000000149,19759.39999999851,24052.30000000447,25121.30000000447,30062.5,34550.89999999851,34999.39999999851,35564.20000000298,36012.39999999851,36532.89999999851,36997.10000000149,37542,38158.39999999851,38927,39512.10000000149,40100.5,40677.10000000149,41285.70000000298,41910.5,42487.30000000447,43039.70000000298,43656.39999999851,44229.10000000149,44765.70000000298,45374.30000000447,45966.89999999851,46511.5,49342.30000000447,50030.89999999851,50623.39999999851,51120,51608.30000000447,52289.10000000149,52917.60000000149,53534.30000000447,54087.10000000149,54615.39999999851,55208.10000000149,55800.5,56385,56949.60000000149,57542.30000000447,58070.89999999851,58655.10000000149,59215.60000000149,59800.10000000149,60529.10000000149,61117.39999999851,65736.70000000298,66249.20000000298,66793.80000000447,67338.39999999851,67898.70000000298,68491.20000000298,69076.30000000447,69712.20000000298,70336.89999999851,73219.39999999851,73735.89999999851,74320.39999999851,74832.80000000447,76338.10000000149],"honeypot":0,"survey":"mace","page":9,"trial_type":"survey-mace","trial_index":17,"time_elapsed":859343,"internal_node_id":"0.0-17.0","task_version":"prescreen-v0.3","browser_interactions":0},{"responses":{"01":"Yes","01_ages_11":"11","01_ages_12":"12","01_ages_13":"13","01_ages_14":"14","02":"No","03":"Yes","03_ages_15":"15","03_ages_16":"16","03_ages_17":"17","03_ages_18":"18","04":"Yes","04_ages_10":"10","04_ages_11":"11","04_ages_12":"12","04_ages_13":"13","04_ages_14":"14","04_ages_15":"15","04_ages_16":"16","04_ages_17":"17","04_ages_18":"18","05":"Yes","05_ages_5":"5","05_ages_6":"6","05_ages_7":"7","05_ages_8":"8","05_ages_9":"9","05_ages_10":"10","05_ages_11":"11","05_ages_12":"12","05_ages_13":"13","05_ages_14":"14","05_ages_15":"15","06":"Yes","06_ages_17":"17","07":"Yes","07_ages_1":"1","07_ages_2":"2","07_ages_3":"3","07_ages_4":"4","07_ages_5":"5","07_ages_6":"6","07_ages_7":"7","07_ages_8":"8","07_ages_9":"9","07_ages_10":"10","07_ages_11":"11","07_ages_12":"12","07_ages_13":"13","07_ages_14":"14","07_ages_15":"15","07_ages_16":"16","07_ages_17":"17","07_ages_18":"18","08":"Yes","08_ages_1":"1","08_ages_2":"2","08_ages_3":"3","08_ages_4":"4","08_ages_5":"5","08_ages_6":"6","08_ages_7":"7","08_ages_8":"8","08_ages_9":"9","08_ages_10":"10","08_ages_11":"11","08_ages_12":"12","08_ages_15":"15","08_ages_16":"16","08_ages_17":"17","08_ages_18":"18"},"rt":111124.30000000447,"item_order":[0,1,2,3,4,5,6,7],"radio_events":[3487.2000000029802,8047.10000000149,8951.90000000596,27023.20000000298,41561.80000000447,54907.20000000298,56884.80000000447,60168.80000000447,61946.80000000447],"checkbox_events":[12999,14480.5,15553.30000000447,19984.70000000298,35167.70000000298,36729,37337.80000000447,37946.10000000149,44296.80000000447,44833.30000000447,45361.60000000149,45874.30000000447,46406.80000000447,46975.60000000149,48007.60000000149,48577.40000000596,49201.5,57746.20000000298,64289.30000000447,64826,65354.40000000596,65834.90000000596,66347.30000000447,67605,68169.5,68697.70000000298,69722.70000000298,70795.70000000298,71428.30000000447,72601.70000000298,74891.90000000596,75853.10000000149,76849.70000000298,77482.70000000298,80878.20000000298,81346.80000000447,82244.20000000298,82836.10000000149,83853.20000000298,84405.80000000447,84950.40000000596,85522.80000000447,86043.5,86532.10000000149,87052.60000000149,87645.30000000447,88197.5,88718.70000000298,89223.20000000298,89763.80000000447,90316.40000000596,91630.30000000447,98874.30000000447,99374.80000000447,99927.40000000596,100479.90000000596,100968.40000000596,101521.10000000149,102025.60000000149,102570.30000000447,103275,103799.5,105946.10000000149],"key_events":[],"mouse_events":[3487.2000000029802,6994.20000000298,8047.10000000149,8951.90000000596,12999,14480.5,15553.30000000447,19984.70000000298,27023.20000000298,35167.70000000298,35824.30000000447,36729,37337.80000000447,37946.10000000149,41561.80000000447,44296.80000000447,44833.30000000447,45361.60000000149,45874.30000000447,46406.80000000447,46975.60000000149,47486.70000000298,48007.60000000149,48577.40000000596,49201.5,54907.20000000298,56884.80000000447,57746.20000000298,60168.80000000447,61946.80000000447,64289.30000000447,64826,65354.40000000596,65834.90000000596,66347.30000000447,66900.30000000447,67605,68169.5,68697.70000000298,69266.60000000149,69722.70000000298,70267.40000000596,70795.70000000298,71428.30000000447,72061.10000000149,72601.70000000298,74891.90000000596,75853.10000000149,76849.70000000298,77482.70000000298,80878.20000000298,81346.80000000447,82244.20000000298,82836.10000000149,83396.80000000447,83853.20000000298,84405.80000000447,84950.40000000596,85522.80000000447,86043.5,86532.10000000149,87052.60000000149,87645.30000000447,88197.5,88718.70000000298,89223.20000000298,89763.80000000447,90316.40000000596,90829.60000000149,91630.30000000447,98874.30000000447,99374.80000000447,99927.40000000596,100479.90000000596,100968.40000000596,101521.10000000149,102025.60000000149,102570.30000000447,103275,103799.5,105946.10000000149,111115.70000000298],"honeypot":0,"survey":"mace","page":10,"trial_type":"survey-mace","trial_index":18,"time_elapsed":970477,"internal_node_id":"0.0-18.0","task_version":"prescreen-v0.3","browser_interactions":0,"instructed":0},{"rt":3520.5,"trial_type":"mental-health-alert","trial_index":19,"time_elapsed":974001,"internal_node_id":"0.0-19.0","task_version":"prescreen-v0.3","interactions":"[]"}]