[{"view_history":[{"page_index":0,"viewing_time":2982.199999809265},{"page_index":1,"viewing_time":1359.2000002861023},{"page_index":2,"viewing_time":2138.199999809265},{"page_index":3,"viewing_time":911.9000000953674}],"rt":7392.099999904633,"trial_type":"instructions","trial_index":0,"time_elapsed":7412,"internal_node_id":"0.0-0.0","task_version":"prescreen-v0.3"},{"rt":13503.5,"responses":{"age":"25","gender-categorical":"Male","gender-free-response":"","ethnicity":"Not Hispanic or Latino","race":["White"],"education":"Bachelor degree"},"trial_type":"survey-demo","trial_index":1,"time_elapsed":20921,"internal_node_id":"0.0-1.0","task_version":"prescreen-v0.3"},{"responses":{"Q18":"1","Q03":"2","Q10":"1","Q06":"1","Q14":"2","Q16":"3","Q01":"3","Q09":"0","Q12":"1","Q15":"1","Q21":"2","Q02":"1","Q19":"2","Q13":"2","Q17":"1","Q04":"2","Q07":"0","Q11":"1","Q20":"2","Q05":"1","Q08":"2"},"rt":109489.19999980927,"item_order":[17,2,9,5,13,15,0,8,11,14,20,1,18,12,16,3,6,10,19,4,7],"radio_events":[9810.099999904633,13455,15152.400000095367,20852.900000095367,25154.599999904633,28887.599999904633,31554.300000190735,40082.09999990463,43925.90000009537,45949.90000009537,51908,61092.90000009537,66007.40000009537,79131.5,82194,87214.5,89328.80000019073,92484.40000009537,94968.19999980927,97175.59999990463,104635.69999980927,108382.30000019073],"key_events":[],"mouse_events":[9810.099999904633,13455,15152.400000095367,20852.900000095367,25154.599999904633,28887.599999904633,30952.099999904633,31554.300000190735,40082.09999990463,43925.90000009537,45949.90000009537,51908,59908.59999990463,61092.90000009537,65445.800000190735,66007.40000009537,79131.5,82194,87214.5,89328.80000019073,92484.40000009537,94968.19999980927,97175.59999990463,104187.90000009537,104635.69999980927,108382.30000019073,109485.80000019073],"straightlining":0.42857142857142855,"zigzagging":0.75,"honeypot":0,"survey":"sns","trial_type":"survey-template","trial_index":2,"time_elapsed":130424,"internal_node_id":"0.0-2.0","task_version":"prescreen-v0.3","browser_interactions":0,"infrequency":0.5},{"responses":{"Q05":"2","Q07":"3","Q02":"2","Q04":"2","Q13":"0","Q10":"2","Q01":"2","Q08":"2","Q03":"3","Q12":"2","Q09":"2","Q06":"1","Q11":"2"},"rt":51258,"item_order":[4,6,1,3,12,9,0,7,2,11,8,5,10],"radio_events":[6246.60000038147,8710,10729.900000095367,13812.700000286102,15677.700000286102,18841.800000190735,24057.5,25556.200000286102,31082.700000286102,35515.2000002861,37258.800000190735,40765.10000038147,43004.300000190735,45623.2000002861,47488.2000002861,50473.300000190735],"key_events":[],"mouse_events":[5562.300000190735,6246.60000038147,8710,9972.300000190735,10729.900000095367,13189.400000095367,13812.700000286102,15677.700000286102,18841.800000190735,24057.5,25556.200000286102,31082.700000286102,35515.2000002861,36818.7000002861,37258.800000190735,40765.10000038147,43004.300000190735,45623.2000002861,46820.10000038147,47488.2000002861,50473.300000190735,51255.60000038147],"straightlining":0.6923076923076923,"zigzagging":0.5,"honeypot":0,"survey":"bisbas","trial_type":"survey-template","trial_index":3,"time_elapsed":181691,"internal_node_id":"0.0-3.0","task_version":"prescreen-v0.3","browser_interactions":0,"infrequency":0},{"responses":{"Q01":"3","Q02":"2","Q03":"4"},"rt":15278.60000038147,"radio_events":[6790.800000190735,10623,14642.400000095367],"key_events":[],"mouse_events":[6383.900000095367,6790.800000190735,10623,14642.400000095367,15277.300000190735],"survey":"map","page":1,"trial_type":"survey-map","trial_index":4,"time_elapsed":196976,"internal_node_id":"0.0-4.0","task_version":"prescreen-v0.3","browser_interactions":0},{"responses":{"Q04":"2","Q05":"1","Q06":"2"},"rt":10875,"radio_events":[3063.1000003814697,6495.900000095367,7811.800000190735,10051.5],"key_events":[],"mouse_events":[3063.1000003814697,6495.900000095367,7384.60000038147,7811.800000190735,10051.5,10874.10000038147],"survey":"map","page":2,"trial_type":"survey-map","trial_index":5,"time_elapsed":207858,"internal_node_id":"0.0-5.0","task_version":"prescreen-v0.3","browser_interactions":0},{"responses":{"Q07":"1","Q08":"2","Q09":"1"},"rt":16934.5,"radio_events":[6449.5,9915.5,13055.599999904633,16070.200000286102],"key_events":[],"mouse_events":[6449.5,9915.5,13055.599999904633,15637.700000286102,16070.200000286102,16933.599999904633],"survey":"map","page":3,"trial_type":"survey-map","trial_index":6,"time_elapsed":224798,"internal_node_id":"0.0-6.0","task_version":"prescreen-v0.3","browser_interactions":0},{"responses":{"Q10":"2","Q11":"0","Q12":"2","Q13":"2","Q16":"0","Q14":"0","Q15":"0"},"rt":38706,"radio_events":[3768.0999999046326,13079.199999809265,23609.199999809265,27282.799999713898,30552.400000095367,35027.90000009537,37728.40000009537],"key_events":[],"mouse_events":[3768.0999999046326,13079.199999809265,23609.199999809265,27282.799999713898,30552.400000095367,34441.5,35027.90000009537,36640.699999809265,37297,37728.40000009537,38703.90000009537],"survey":"map","page":4,"trial_type":"survey-map","trial_index":7,"time_elapsed":263513,"internal_node_id":"0.0-7.0","task_version":"prescreen-v0.3","browser_interactions":0,"infrequency":0},{"view_history":[{"page_index":0,"viewing_time":2097.9000000953674},{"page_index":1,"viewing_time":2641.5}],"rt":4740,"trial_type":"instructions","trial_index":8,"time_elapsed":268259,"internal_node_id":"0.0-8.0","task_version":"prescreen-v0.3"},{"responses":{"01":"No","02":"No","03":"No","04":"No","05":"No","06":"No"},"rt":16677.89999961853,"item_order":[0,1,2,3,4,5],"radio_events":[8333.5,10019,12295.699999809265,13671.89999961853,15048,15862.599999904633],"checkbox_events":[],"key_events":[],"mouse_events":[0.2999997138977051,8333.5,10019,12295.699999809265,13256.599999904633,13671.89999961853,15048,15862.599999904633,16672.299999713898],"honeypot":0,"survey":"mace","page":1,"trial_type":"survey-mace","trial_index":9,"time_elapsed":284947,"internal_node_id":"0.0-9.0","task_version":"prescreen-v0.3","browser_interactions":0},{"responses":{"01":"No","02":"No","03":"No","04":"No","05":"No","06":"No","07":"No","08":"No"},"rt":12816.400000095367,"item_order":[0,1,2,3,4,5,6,7],"radio_events":[3750.9000000953674,4651,5612.5,7436.5,8962.900000095367,9737.200000286102,11049,12009.900000095367],"checkbox_events":[],"key_events":[],"mouse_events":[3750.9000000953674,4651,5612.5,7436.5,8962.900000095367,9737.200000286102,11049,12009.900000095367,12809.300000190735],"honeypot":0,"survey":"mace","page":2,"trial_type":"survey-mace","trial_index":10,"time_elapsed":297771,"internal_node_id":"0.0-10.0","task_version":"prescreen-v0.3","browser_interactions":0},{"responses":{"01":"No","02":"No","03":"No","04":"No"},"rt":13342.5,"item_order":[0,1,2,3],"radio_events":[9073.5,10095.699999809265,11520.299999713898,12376.099999904633],"checkbox_events":[],"key_events":[],"mouse_events":[9073.5,10095.699999809265,10885.799999713898,11520.299999713898,12376.099999904633,13338.199999809265],"honeypot":0,"survey":"mace","page":3,"trial_type":"survey-mace","trial_index":11,"time_elapsed":311121,"internal_node_id":"0.0-11.0","task_version":"prescreen-v0.3","browser_interactions":0},{"responses":{"01":"No","02":"No"},"rt":7472.199999809265,"item_order":[0,1],"radio_events":[6056.5,6822.099999904633],"checkbox_events":[],"key_events":[],"mouse_events":[6056.5,6822.099999904633,7470.400000095367],"honeypot":0,"survey":"mace","page":4,"trial_type":"survey-mace","trial_index":12,"time_elapsed":318598,"internal_node_id":"0.0-12.0","task_version":"prescreen-v0.3","browser_interactions":0},{"responses":{"01":"No","02":"No","03":"No","04":"No","05":"No"},"rt":10010.699999809265,"item_order":[0,1,2,3,4],"radio_events":[2769,4576.199999809265,6975.599999904633,7667.900000095367,8352],"checkbox_events":[],"key_events":[],"mouse_events":[2769,4576.199999809265,6975.599999904633,7667.900000095367,8352,10006.199999809265],"honeypot":0,"survey":"mace","page":5,"trial_type":"survey-mace","trial_index":13,"time_elapsed":328617,"internal_node_id":"0.0-13.0","task_version":"prescreen-v0.3","browser_interactions":0},{"responses":{"01":"Yes","01_ages_6":"6","01_ages_7":"7","01_ages_8":"8","01_ages_9":"9","01_ages_10":"10","01_ages_11":"11","01_ages_12":"12","01_ages_13":"13","02":"Yes","02_ages_6":"6","02_ages_7":"7","02_ages_8":"8","02_ages_9":"9","02_ages_10":"10","02_ages_11":"11","02_ages_12":"12","02_ages_13":"13","03":"Yes","03_ages_6":"6","03_ages_7":"7","03_ages_8":"8","03_ages_9":"9","03_ages_10":"10","03_ages_11":"11","03_ages_12":"12","03_ages_13":"13","04":"No","05":"Yes","05_ages_11":"11","05_ages_12":"12","05_ages_13":"13"},"rt":264681,"item_order":[0,1,2,3,4],"radio_events":[4506.89999961853,18365.5,247855.19999980927,249997.7999997139,258989.7999997139,259702.7999997139],"checkbox_events":[7972.89999961853,8429,9389.699999809265,9764.299999713898,10423.799999713898,10839.699999809265,11287.299999713898,13205.599999904633,19187.799999713898,19937.199999809265,20348.89999961853,20764,21154.599999904633,21513.299999713898,21928.89999961853,22506.799999713898,251638.7999997139,252070.59999990463,253088.59999990463,253447.5,254327,254677,255455.09999990463,255854.2999997139,261844.69999980927,262601.59999990463,263535.2999997139],"key_events":[],"mouse_events":[4506.89999961853,7972.89999961853,8429,8867.699999809265,9389.699999809265,9764.299999713898,10423.799999713898,10839.699999809265,11287.299999713898,13205.599999904633,18365.5,19187.799999713898,19578.299999713898,19937.199999809265,20348.89999961853,20764,21154.599999904633,21513.299999713898,21928.89999961853,22506.799999713898,247855.19999980927,249997.7999997139,251183,251638.7999997139,252070.59999990463,252632.7999997139,253088.59999990463,253447.5,253878.7999997139,254327,254677,255071.7999997139,255455.09999990463,255854.2999997139,256480.7999997139,256969.89999961853,258639.89999961853,258989.7999997139,259702.7999997139,261844.69999980927,262259.7999997139,262601.59999990463,263074.89999961853,263535.2999997139,264676],"honeypot":0,"survey":"mace","page":6,"trial_type":"survey-mace","trial_index":14,"time_elapsed":593313,"internal_node_id":"0.0-14.0","task_version":"prescreen-v0.3","browser_interactions":0},{"responses":{"01":"No","02":"Yes","02_ages_8":"8","02_ages_9":"9","03":"Yes","03_ages_8":"8","03_ages_9":"9","04":"Yes","04_ages_9":"9","04_ages_10":"10","04_ages_11":"11","05":"No","06":"No","07":"No"},"rt":30470.60000038147,"item_order":[0,1,2,3,4,5,6],"radio_events":[4536.10000038147,6401.300000190735,8132.5,13130.10000038147,16326.60000038147,21218.700000286102,22269.300000190735,30019.700000286102],"checkbox_events":[9900.400000095367,10673.300000190735,14090.700000286102,14490.400000095367,17369.5,17972.700000286102,19112.900000095367],"key_events":[],"mouse_events":[4536.10000038147,6401.300000190735,7757.800000190735,8132.5,9900.400000095367,10283.10000038147,10673.300000190735,13130.10000038147,13699.60000038147,14090.700000286102,14490.400000095367,16326.60000038147,17369.5,17972.700000286102,18559.200000286102,19112.900000095367,21218.700000286102,22269.300000190735,30019.700000286102,30463.60000038147],"honeypot":0,"survey":"mace","page":7,"trial_type":"survey-mace","trial_index":15,"time_elapsed":623792,"internal_node_id":"0.0-15.0","task_version":"prescreen-v0.3","browser_interactions":0},{"responses":{"01":"No","02":"No","03":"No","04":"No"},"rt":7291.900000095367,"item_order":[0,1,2,3],"radio_events":[3619,4738.10000038147,5797.300000190735,6718.10000038147],"checkbox_events":[],"key_events":[],"mouse_events":[3619,4738.10000038147,5797.300000190735,6718.10000038147,7287.60000038147],"honeypot":0,"survey":"mace","page":8,"trial_type":"survey-mace","trial_index":16,"time_elapsed":631092,"internal_node_id":"0.0-16.0","task_version":"prescreen-v0.3","browser_interactions":0},{"responses":{"01":"Yes","01_ages_1":"1","01_ages_2":"2","01_ages_3":"3","01_ages_4":"4","01_ages_5":"5","01_ages_6":"6","01_ages_7":"7","01_ages_8":"8","01_ages_9":"9","01_ages_10":"10","01_ages_11":"11","01_ages_12":"12","01_ages_13":"13","01_ages_14":"14","01_ages_15":"15","01_ages_16":"16","01_ages_17":"17","01_ages_18":"18","02":"Yes","02_ages_1":"1","02_ages_2":"2","02_ages_3":"3","02_ages_4":"4","02_ages_5":"5","02_ages_6":"6","02_ages_7":"7","02_ages_8":"8","02_ages_9":"9","02_ages_10":"10","02_ages_11":"11","02_ages_12":"12","02_ages_13":"13","02_ages_14":"14","02_ages_15":"15","02_ages_16":"16","02_ages_17":"17","02_ages_18":"18","03":"Yes","03_ages_1":"1","03_ages_2":"2","03_ages_3":"3","03_ages_4":"4","03_ages_5":"5","03_ages_6":"6","03_ages_7":"7","03_ages_8":"8","03_ages_9":"9","03_ages_10":"10","03_ages_11":"11","03_ages_12":"12","03_ages_13":"13","03_ages_14":"14","03_ages_15":"15","03_ages_16":"16","03_ages_17":"17","03_ages_18":"18","04":"Yes","04_ages_1":"1","04_ages_2":"2","04_ages_3":"3","04_ages_4":"4","04_ages_5":"5","04_ages_6":"6","04_ages_7":"7","04_ages_8":"8","04_ages_9":"9","04_ages_10":"10","04_ages_11":"11","04_ages_12":"12","04_ages_13":"13","04_ages_14":"14","04_ages_15":"15","04_ages_16":"16","04_ages_17":"17","04_ages_18":"18"},"rt":65222,"item_order":[0,1,2,3],"radio_events":[4472.599999904633,25442.400000095367,26826.799999713898,28944.299999713898],"checkbox_events":[13635.799999713898,14076.099999904633,14898.299999713898,15285.400000095367,15700.799999713898,16124.199999809265,16564,17028.799999713898,17900.400000095367,18624.699999809265,19015.699999809265,19858.900000095367,20583.599999904633,20982.599999904633,21553.099999904633,22375.5,22905.400000095367,23573.299999713898,30569.400000095367,31008.5,32067.699999809265,33167,33749.90000009537,34292.40000009537,35049.90000009537,35500.5,35826.90000009537,36494.2999997139,36920.09999990463,37577.7999997139,38347.40000009537,38884.699999809265,39357.199999809265,39772.5,40277.7999997139,40945.5,41361,41793,42431.90000009537,43418,43865.5,44354.59999990463,44957.09999990463,45396.199999809265,46016.2999997139,46476.09999990463,47369.59999990463,48455.2999997139,48911.5,49522.40000009537,50027.40000009537,50544.5,51090.7999997139,51562.7999997139,52149.7999997139,52671,53876.09999990463,54356.2999997139,54776.5,55354.40000009537,55818.5,56315.59999990463,56787.90000009537,57260.5,58604,59072.699999809265,59512.09999990463,60098.90000009537,60530.199999809265,60945.699999809265,61369.699999809265,62264.90000009537,63092.7999997139,63458.40000009537],"key_events":[],"mouse_events":[4472.599999904633,13203.5,13635.799999713898,14076.099999904633,14898.299999713898,15285.400000095367,15700.799999713898,16124.199999809265,16564,17028.799999713898,17476.299999713898,17900.400000095367,18258.599999904633,18624.699999809265,19015.699999809265,19467.599999904633,19858.900000095367,20241.400000095367,20583.599999904633,20982.599999904633,21553.099999904633,22025.799999713898,22375.5,22905.400000095367,23573.299999713898,25442.400000095367,26297,26826.799999713898,28944.299999713898,30569.400000095367,31008.5,31424.699999809265,32067.699999809265,32744.5,33167,33749.90000009537,34292.40000009537,35049.90000009537,35500.5,35826.90000009537,36494.2999997139,36920.09999990463,37577.7999997139,37964.90000009537,38347.40000009537,38884.699999809265,39357.199999809265,39772.5,40277.7999997139,40945.5,41361,41793,42431.90000009537,42839.09999990463,43418,43865.5,44354.59999990463,44957.09999990463,45396.199999809265,46016.2999997139,46476.09999990463,46899.5,47369.59999990463,47910,48455.2999997139,48911.5,49522.40000009537,50027.40000009537,50544.5,51090.7999997139,51562.7999997139,52149.7999997139,52671,53509.90000009537,53876.09999990463,54356.2999997139,54776.5,55354.40000009537,55818.5,56315.59999990463,56787.90000009537,57260.5,58604,59072.699999809265,59512.09999990463,60098.90000009537,60530.199999809265,60945.699999809265,61369.699999809265,61841.59999990463,62264.90000009537,62762.40000009537,63092.7999997139,63458.40000009537,65218.2999997139],"honeypot":0,"survey":"mace","page":9,"trial_type":"survey-mace","trial_index":17,"time_elapsed":696332,"internal_node_id":"0.0-17.0","task_version":"prescreen-v0.3","browser_interactions":0},{"responses":{"01":"No","02":"No","03":"No","04":"No","05":"No","06":"Yes","06_ages_17":"17","07":"Yes","07_ages_1":"1","07_ages_2":"2","07_ages_3":"3","07_ages_4":"4","07_ages_5":"5","07_ages_6":"6","07_ages_7":"7","07_ages_8":"8","07_ages_9":"9","07_ages_10":"10","07_ages_11":"11","07_ages_12":"12","07_ages_13":"13","07_ages_14":"14","07_ages_15":"15","07_ages_16":"16","07_ages_17":"17","07_ages_18":"18","08":"Yes","08_ages_1":"1","08_ages_2":"2","08_ages_3":"3","08_ages_4":"4","08_ages_5":"5","08_ages_6":"6","08_ages_7":"7","08_ages_8":"8","08_ages_9":"9","08_ages_10":"10","08_ages_11":"11","08_ages_12":"12","08_ages_13":"13","08_ages_14":"14","08_ages_15":"15","08_ages_16":"16","08_ages_17":"17","08_ages_18":"18"},"rt":42509.7999997139,"item_order":[0,1,2,3,4,5,6,7],"radio_events":[4683.89999961853,5400,6691.39999961853,7741.89999961853,8955.599999904633,11114.199999809265,19838.799999713898,31917.799999713898],"checkbox_events":[12315.299999713898,22005.599999904633,23023.799999713898,23471.799999713898,24021.299999713898,24453.5,24909,25895.099999904633,26269.299999713898,27124.199999809265,27563.699999809265,28317.89999961853,28749.39999961853,29173.199999809265,29563.89999961853,29971.599999904633,30370,30761.299999713898,31266.099999904633,32908.5,33290.5,33754.59999990463,34161.59999990463,34552.199999809265,34951.59999990463,36287.89999961853,36698.5,37081.199999809265,37512.7999997139,37912.199999809265,38343.7999997139,38734.7999997139,39150.2999997139,39573.699999809265,40428.89999961853,40815.7999997139,41451.09999990463],"key_events":[],"mouse_events":[4162.39999961853,4683.89999961853,5400,6691.39999961853,7741.89999961853,8955.599999904633,11114.199999809265,12315.299999713898,19838.799999713898,22005.599999904633,22453.5,23023.799999713898,23471.799999713898,24021.299999713898,24453.5,24909,25421.799999713898,25895.099999904633,26269.299999713898,27124.199999809265,27563.699999809265,28317.89999961853,28749.39999961853,29173.199999809265,29563.89999961853,29971.599999904633,30370,30761.299999713898,31266.099999904633,31917.799999713898,32908.5,33290.5,33754.59999990463,34161.59999990463,34552.199999809265,34951.59999990463,35440.2999997139,35864.39999961853,36287.89999961853,36698.5,37081.199999809265,37512.7999997139,37912.199999809265,38343.7999997139,38734.7999997139,39150.2999997139,39573.699999809265,40013,40428.89999961853,40815.7999997139,41451.09999990463,42501.89999961853],"honeypot":0,"survey":"mace","page":10,"trial_type":"survey-mace","trial_index":18,"time_elapsed":738851,"internal_node_id":"0.0-18.0","task_version":"prescreen-v0.3","browser_interactions":0,"instructed":0},{"rt":4525,"trial_type":"mental-health-alert","trial_index":19,"time_elapsed":743382,"internal_node_id":"0.0-19.0","task_version":"prescreen-v0.3","interactions":"[]"}]