[{"view_history":[{"page_index":0,"viewing_time":2816.899999976158},{"page_index":1,"viewing_time":2117.800000011921},{"page_index":2,"viewing_time":2294.699999988079},{"page_index":3,"viewing_time":1592.1000000238419}],"rt":8822.199999988079,"trial_type":"instructions","trial_index":0,"time_elapsed":8834,"internal_node_id":"0.0-0.0","task_version":"prescreen-v0.3"},{"rt":25234.30000001192,"responses":{"age":"24","gender-categorical":"Female","gender-free-response":"","ethnicity":"Not Hispanic or Latino","race":["White"],"education":"High school"},"trial_type":"survey-demo","trial_index":1,"time_elapsed":34072,"internal_node_id":"0.0-1.0","task_version":"prescreen-v0.3"},{"responses":{"Q16":"2","Q05":"3","Q09":"3","Q08":"3","Q19":"2","Q14":"3","Q12":"2","Q13":"2","Q10":"2","Q18":"2","Q20":"0","Q01":"2","Q02":"1","Q17":"2","Q21":"3","Q15":"3","Q06":"2","Q11":"3","Q04":"3","Q07":"3","Q03":"1"},"rt":132515.89999997616,"item_order":[15,4,8,7,18,13,11,12,9,17,19,0,1,16,20,14,5,10,3,6,2],"radio_events":[9774.800000011921,18906,21674,28310.899999976158,33332.60000002384,40177.10000002384,49597.39999997616,57641.30000001192,65414.30000001192,69924.39999997616,74082.30000001192,79576.19999998808,82111.5,90819.19999998808,95065.30000001192,101255.30000001192,108164.5,115248.30000001192,117703.5,121150.19999998808,126356,129530.10000002384,131074],"key_events":[],"mouse_events":[9774.800000011921,18906,21674,28310.899999976158,33332.60000002384,40177.10000002384,49597.39999997616,57641.30000001192,65414.30000001192,69924.39999997616,74082.30000001192,79576.19999998808,82111.5,90819.19999998808,95065.30000001192,101255.30000001192,108164.5,115248.30000001192,117703.5,121150.19999998808,126356,129530.10000002384,131074,132513.80000001192],"straightlining":0.42857142857142855,"zigzagging":0.45,"honeypot":0,"survey":"sns","trial_type":"survey-template","trial_index":2,"time_elapsed":166592,"internal_node_id":"0.0-2.0","task_version":"prescreen-v0.3","browser_interactions":0,"infrequency":0},{"responses":{"Q12":"3","Q08":"3","Q07":"2","Q02":"2","Q13":"0","Q09":"1","Q01":"3","Q06":"2","Q05":"3","Q10":"1","Q03":"3","Q11":"2","Q04":"2"},"rt":106069,"item_order":[11,7,6,1,12,8,0,5,4,9,2,10,3],"radio_events":[20600.900000035763,26341.900000035763,31276.100000023842,36626.19999998808,40727.60000002384,45829.90000003576,50268.10000002384,58607.80000001192,70643,75313.40000003576,86380,100773.69999998808,105027.90000003576],"key_events":[],"mouse_events":[20600.900000035763,26341.900000035763,31276.100000023842,36626.19999998808,40727.60000002384,45829.90000003576,50268.10000002384,58607.80000001192,70643,75313.40000003576,86380,100773.69999998808,105027.90000003576,106067.80000001192],"straightlining":0.38461538461538464,"zigzagging":0.4166666666666667,"honeypot":0,"survey":"bisbas","trial_type":"survey-template","trial_index":3,"time_elapsed":272664,"internal_node_id":"0.0-3.0","task_version":"prescreen-v0.3","browser_interactions":0,"infrequency":0},{"responses":{"Q01":"3","Q02":"2","Q03":"3"},"rt":45736.60000002384,"radio_events":[10759.100000023842,34421,44560.10000002384],"key_events":[],"mouse_events":[10759.100000023842,34421,44560.10000002384,45735.80000001192],"survey":"map","page":1,"trial_type":"survey-map","trial_index":4,"time_elapsed":318404,"internal_node_id":"0.0-4.0","task_version":"prescreen-v0.3","browser_interactions":0},{"responses":{"Q04":"1","Q05":"1","Q06":"2"},"rt":24258.600000023842,"radio_events":[7521,18789.899999976158,22987],"key_events":[],"mouse_events":[7521,18789.899999976158,22987,24257.899999976158],"survey":"map","page":2,"trial_type":"survey-map","trial_index":5,"time_elapsed":342664,"internal_node_id":"0.0-5.0","task_version":"prescreen-v0.3","browser_interactions":0},{"responses":{"Q07":"3","Q08":"4","Q09":"2"},"rt":21477.600000023842,"radio_events":[6507,17599.400000035763,20652.69999998808],"key_events":[],"mouse_events":[6507,17599.400000035763,20652.69999998808,21477.100000023842],"survey":"map","page":3,"trial_type":"survey-map","trial_index":6,"time_elapsed":364143,"internal_node_id":"0.0-6.0","task_version":"prescreen-v0.3","browser_interactions":0},{"responses":{"Q10":"2","Q11":"1","Q12":"2","Q13":"2","Q16":"0","Q14":"1","Q15":"2"},"rt":58788.5,"radio_events":[8209.199999988079,14878.199999988079,17405.399999976158,25594.399999976158,33078.299999952316,42218.299999952316,47544.19999998808,52678.09999996424,55932.39999997616],"key_events":[],"mouse_events":[8209.199999988079,14878.199999988079,17405.399999976158,25594.399999976158,33078.299999952316,42218.299999952316,47544.19999998808,52678.09999996424,55932.39999997616,58787.299999952316],"survey":"map","page":4,"trial_type":"survey-map","trial_index":7,"time_elapsed":422934,"internal_node_id":"0.0-7.0","task_version":"prescreen-v0.3","browser_interactions":0,"infrequency":0},{"view_history":[{"page_index":0,"viewing_time":1723.800000011921},{"page_index":1,"viewing_time":4207}],"rt":5931.300000011921,"trial_type":"instructions","trial_index":8,"time_elapsed":428866,"internal_node_id":"0.0-8.0","task_version":"prescreen-v0.3"},{"responses":{"01":"No","02":"No","03":"No","04":"No","05":"No","06":"No"},"rt":57667.5,"item_order":[0,1,2,3,4,5],"radio_events":[22001.19999998808,45127.09999996424,49389,51603.89999997616,53666.69999998808,56825.89999997616],"checkbox_events":[],"key_events":[],"mouse_events":[0.19999998807907104,22001.19999998808,45127.09999996424,48797,49389,51603.89999997616,53666.69999998808,56825.89999997616,57665.09999996424],"honeypot":0,"survey":"mace","page":1,"trial_type":"survey-mace","trial_index":9,"time_elapsed":486540,"internal_node_id":"0.0-9.0","task_version":"prescreen-v0.3","browser_interactions":0},{"responses":{"01":"No","02":"No","03":"No","04":"No","05":"No","06":"No","07":"No","08":"No"},"rt":49199.59999996424,"item_order":[0,1,2,3,4,5,6,7],"radio_events":[3617.099999964237,14484.199999988079,28549.899999976158,35322.80000001192,39265,42519.69999998808,44614.69999998808,46149.80000001192,47645.30000001192],"checkbox_events":[],"key_events":[],"mouse_events":[3617.099999964237,14484.199999988079,28549.899999976158,35322.80000001192,39265,42519.69999998808,44614.69999998808,46149.80000001192,47645.30000001192,49196.80000001192],"honeypot":0,"survey":"mace","page":2,"trial_type":"survey-mace","trial_index":10,"time_elapsed":535743,"internal_node_id":"0.0-10.0","task_version":"prescreen-v0.3","browser_interactions":0},{"responses":{"01":"No","02":"No","03":"No","04":"No"},"rt":17019.400000035763,"item_order":[0,1,2,3],"radio_events":[6742.700000047684,10828.800000011921,13491.5,16098.5],"checkbox_events":[],"key_events":[],"mouse_events":[6742.700000047684,10828.800000011921,13491.5,16098.5,17017.700000047684],"honeypot":0,"survey":"mace","page":3,"trial_type":"survey-mace","trial_index":11,"time_elapsed":552766,"internal_node_id":"0.0-11.0","task_version":"prescreen-v0.3","browser_interactions":0},{"responses":{"01":"No","02":"No"},"rt":11289,"item_order":[0,1],"radio_events":[5530.300000011921,10120.300000011921],"checkbox_events":[],"key_events":[],"mouse_events":[5530.300000011921,10120.300000011921,11287.900000035763],"honeypot":0,"survey":"mace","page":4,"trial_type":"survey-mace","trial_index":12,"time_elapsed":564056,"internal_node_id":"0.0-12.0","task_version":"prescreen-v0.3","browser_interactions":0},{"responses":{"01":"No","02":"No","03":"No","04":"No","05":"No"},"rt":25987.19999998808,"item_order":[0,1,2,3,4],"radio_events":[7816.699999988079,12822.699999988079,17804.900000035763,21018.900000035763,24401.80000001192],"checkbox_events":[],"key_events":[],"mouse_events":[7816.699999988079,12822.699999988079,17804.900000035763,21018.900000035763,24401.80000001192,25985.30000001192],"honeypot":0,"survey":"mace","page":5,"trial_type":"survey-mace","trial_index":13,"time_elapsed":590047,"internal_node_id":"0.0-13.0","task_version":"prescreen-v0.3","browser_interactions":0},{"responses":{"01":"No","02":"No","03":"No","04":"No","05":"No"},"rt":63727.19999998808,"item_order":[0,1,2,3,4],"radio_events":[37857.5,40911,51875.19999998808,54289.5,62598],"checkbox_events":[],"key_events":[],"mouse_events":[37857.5,40911,51875.19999998808,54289.5,62598,63725.10000002384],"honeypot":0,"survey":"mace","page":6,"trial_type":"survey-mace","trial_index":14,"time_elapsed":653778,"internal_node_id":"0.0-14.0","task_version":"prescreen-v0.3","browser_interactions":0},{"responses":{"01":"No","02":"No","03":"No","04":"No","05":"No","06":"No","07":"No"},"rt":21819.899999976158,"item_order":[0,1,2,3,4,5,6],"radio_events":[2464.899999976158,5455.899999976158,7319.199999988079,9878.199999988079,12245.399999976158,14116.399999976158,16027.199999988079],"checkbox_events":[],"key_events":[],"mouse_events":[2464.899999976158,5455.899999976158,7319.199999988079,9878.199999988079,12245.399999976158,14116.399999976158,16027.199999988079,21817.099999964237],"honeypot":0,"survey":"mace","page":7,"trial_type":"survey-mace","trial_index":15,"time_elapsed":675602,"internal_node_id":"0.0-15.0","task_version":"prescreen-v0.3","browser_interactions":0},{"responses":{"01":"No","02":"No","03":"No","04":"No"},"rt":28255.30000001192,"item_order":[0,1,2,3],"radio_events":[13404.199999988079,18066.600000023842,22840.19999998808,27558.30000001192],"checkbox_events":[],"key_events":[],"mouse_events":[13404.199999988079,18066.600000023842,22840.19999998808,27558.30000001192,28253.5],"honeypot":0,"survey":"mace","page":8,"trial_type":"survey-mace","trial_index":16,"time_elapsed":703860,"internal_node_id":"0.0-16.0","task_version":"prescreen-v0.3","browser_interactions":0},{"responses":{"01":"Yes","01_ages_4":"4","01_ages_5":"5","01_ages_6":"6","01_ages_7":"7","01_ages_8":"8","01_ages_9":"9","01_ages_10":"10","01_ages_11":"11","01_ages_12":"12","01_ages_13":"13","01_ages_14":"14","01_ages_15":"15","01_ages_16":"16","01_ages_17":"17","01_ages_18":"18","02":"Yes","02_ages_18":"18","03":"Yes","03_ages_3":"3","03_ages_4":"4","03_ages_5":"5","03_ages_6":"6","03_ages_7":"7","03_ages_8":"8","03_ages_9":"9","03_ages_10":"10","03_ages_11":"11","03_ages_12":"12","03_ages_13":"13","03_ages_14":"14","03_ages_15":"15","03_ages_16":"16","03_ages_17":"17","03_ages_18":"18","04":"Yes","04_ages_18":"18"},"rt":85071.90000003576,"item_order":[0,1,2,3],"radio_events":[5305.199999988079,38738.90000003576,58298.10000002384,78136.80000001192],"checkbox_events":[10311.300000011921,11566.600000023842,12654.400000035763,13310.400000035763,14012.900000035763,14885.199999988079,15741,16532.80000001192,17388.30000001192,18987.5,21561.900000035763,25400.400000035763,26248.30000001192,26928.400000035763,27352.30000001192,51245.19999998808,60713.30000001192,61385.19999998808,62527.69999998808,63248.10000002384,64022.90000003576,65399.30000001192,66007.10000002384,66590,67158.30000001192,67733.90000003576,68310.30000001192,68805,69325.90000003576,69909.30000001192,70813,71772,83399.10000002384],"key_events":[],"mouse_events":[5305.199999988079,10311.300000011921,11566.600000023842,12654.400000035763,13310.400000035763,14012.900000035763,14885.199999988079,15741,16532.80000001192,17388.30000001192,18987.5,21561.900000035763,25400.400000035763,26248.30000001192,26928.400000035763,27352.30000001192,27784.100000023842,38738.90000003576,51245.19999998808,58298.10000002384,60713.30000001192,61385.19999998808,62527.69999998808,63248.10000002384,64022.90000003576,65399.30000001192,66007.10000002384,66590,67158.30000001192,67733.90000003576,68310.30000001192,68805,69325.90000003576,69909.30000001192,70813,71772,78136.80000001192,83399.10000002384,85070.19999998808],"honeypot":0,"survey":"mace","page":9,"trial_type":"survey-mace","trial_index":17,"time_elapsed":788934,"internal_node_id":"0.0-17.0","task_version":"prescreen-v0.3","browser_interactions":0},{"responses":{"01":"No","02":"No","03":"No","04":"No","05":"Yes","05_ages_5":"5","05_ages_6":"6","05_ages_7":"7","05_ages_8":"8","05_ages_9":"9","05_ages_10":"10","05_ages_11":"11","05_ages_12":"12","05_ages_13":"13","05_ages_14":"14","05_ages_15":"15","05_ages_16":"16","05_ages_17":"17","05_ages_18":"18","06":"Yes","06_ages_17":"17","07":"Yes","07_ages_8":"8","07_ages_9":"9","07_ages_10":"10","07_ages_11":"11","07_ages_12":"12","07_ages_13":"13","07_ages_14":"14","07_ages_15":"15","07_ages_16":"16","07_ages_17":"17","07_ages_18":"18","08":"Yes","08_ages_8":"8","08_ages_9":"9","08_ages_10":"10","08_ages_11":"11","08_ages_12":"12","08_ages_13":"13","08_ages_14":"14","08_ages_15":"15","08_ages_16":"16","08_ages_17":"17","08_ages_18":"18"},"rt":86248.79999995232,"item_order":[0,1,2,3,4,5,6,7],"radio_events":[9407,10950.699999988079,14212.599999964237,22114.299999952316,27110.599999964237,47247,52555.5,58433.39999997616],"checkbox_events":[32996.5,33501.09999996424,33955.19999998808,34452.299999952316,38466.69999998808,38970,39505.69999998808,40042.39999997616,40497.799999952316,40984.69999998808,41520.5,42520.5,43001.19999998808,43463.69999998808,49133.69999998808,62895.69999998808,63734.5,64446.69999998808,66645.79999995232,67381.69999998808,68085.89999997616,68876.69999998808,69516.79999995232,70268.69999998808,71012.19999998808,72035.69999998808,74706.69999998808,75569.59999996424,77290.19999998808,78264.29999995232,79623.69999998808,80583.59999996424,81431.89999997616,82358.69999998808,83543.39999997616,84253.69999998808,84958.09999996424],"key_events":[],"mouse_events":[9407,10950.699999988079,14212.599999964237,22114.299999952316,27110.599999964237,32996.5,33501.09999996424,33955.19999998808,34452.299999952316,38466.69999998808,38970,39505.69999998808,40042.39999997616,40497.799999952316,40984.69999998808,41520.5,42520.5,43001.19999998808,43463.69999998808,47247,49133.69999998808,52555.5,58433.39999997616,59745.39999997616,62895.69999998808,63734.5,64446.69999998808,66645.79999995232,67381.69999998808,68085.89999997616,68876.69999998808,69516.79999995232,70268.69999998808,71012.19999998808,72035.69999998808,74706.69999998808,75569.59999996424,77290.19999998808,78264.29999995232,79623.69999998808,80583.59999996424,81431.89999997616,82358.69999998808,83543.39999997616,84253.69999998808,84958.09999996424,86246],"honeypot":0,"survey":"mace","page":10,"trial_type":"survey-mace","trial_index":18,"time_elapsed":875188,"internal_node_id":"0.0-18.0","task_version":"prescreen-v0.3","browser_interactions":0,"instructed":0},{"rt":7854,"trial_type":"mental-health-alert","trial_index":19,"time_elapsed":883043,"internal_node_id":"0.0-19.0","task_version":"prescreen-v0.3","interactions":"[]"}]