[{"view_history":[{"page_index":0,"viewing_time":3367.399999999994},{"page_index":1,"viewing_time":2648.2999999999884},{"page_index":2,"viewing_time":61616.899999999994},{"page_index":3,"viewing_time":951.5}],"rt":68584.79999999999,"trial_type":"instructions","trial_index":0,"time_elapsed":68589,"internal_node_id":"0.0-0.0","task_version":"prescreen-v0.3"},{"rt":13187.300000000017,"responses":{"age":"32","gender-categorical":"Male","gender-free-response":"","ethnicity":"Not Hispanic or Latino","race":["Asian"],"education":"Bachelor degree","siblings":"2"},"trial_type":"survey-demo","trial_index":1,"time_elapsed":81781,"internal_node_id":"0.0-1.0","task_version":"prescreen-v0.3"},{"responses":{"Q08":"2","Q01":"2","Q02":"2","Q20":"0","Q12":"1","Q04":"2","Q17":"1","Q03":"2","Q15":"2","Q16":"1","Q06":"2","Q05":"2","Q10":"1","Q14":"0","Q18":"2","Q19":"2","Q21":"3","Q11":"2","Q07":"0","Q13":"1","Q09":"2"},"rt":94280.20000000001,"item_order":[7,0,1,19,11,3,16,2,14,15,5,4,9,13,17,18,20,10,6,12,8],"radio_events":[3341.2000000000116,8229.099999999977,10873.400000000023,15716.200000000012,17094.20000000001,20226.900000000023,22883.20000000001,25789.20000000001,27577.20000000001,34504,35684,38160.59999999998,42767.09999999998,46257.59999999998,51142,51886,55010.20000000001,55548.20000000001,60688.90000000002,71987.90000000002,77018.59999999998,80689,84307.59999999998,91656.29999999999,93190.70000000001],"key_events":[],"mouse_events":[2656.7999999999884,3341.2000000000116,7089,8229.099999999977,10355.5,10873.400000000023,13168,15224.200000000012,15716.200000000012,16334.200000000012,17094.20000000001,19798.5,20226.900000000023,22883.20000000001,25241.400000000023,25789.20000000001,27577.20000000001,30603.70000000001,34504,35154.5,35462,35684,38160.59999999998,41420.59999999998,42767.09999999998,45987.20000000001,46257.59999999998,50784,51142,51886,53712.29999999999,55010.20000000001,55548.20000000001,59754.59999999998,60688.90000000002,71987.90000000002,76492.59999999998,77018.59999999998,80139,80689,83107,84307.59999999998,86777.59999999998,91656.29999999999,92398.29999999999,93190.70000000001,94278.70000000001],"straightlining":0.5714285714285714,"zigzagging":0.6,"honeypot":0,"survey":"sns","trial_type":"survey-template","trial_index":2,"time_elapsed":176066,"internal_node_id":"0.0-2.0","task_version":"prescreen-v0.3","browser_interactions":0,"infrequency":0},{"responses":{"Q12":"1","Q03":"3","Q11":"2","Q10":"2","Q06":"3","Q05":"2","Q04":"3","Q01":"3","Q07":"3","Q09":"2","Q13":"0","Q08":"2","Q02":"3"},"rt":51967.70000000001,"item_order":[11,2,10,9,5,4,3,0,6,8,12,7,1],"radio_events":[5841.899999999965,10604.200000000012,13826.700000000012,14534.700000000012,18857.29999999999,21079.5,22749.79999999999,26296.399999999965,30830.29999999999,34982.899999999965,35552.899999999965,38789.20000000001,41739.59999999998,45686,51552.5],"key_events":[],"mouse_events":[1811.399999999965,5511.700000000012,5841.899999999965,10604.200000000012,13826.700000000012,14534.700000000012,18467.099999999977,18857.29999999999,21079.5,22749.79999999999,25461.79999999999,25974.29999999999,26296.399999999965,30352.29999999999,30830.29999999999,33950.79999999999,34471.399999999965,34982.899999999965,35552.899999999965,38361.29999999999,38789.20000000001,41739.59999999998,44837.899999999965,45686,51252.70000000001,51552.5,51966.70000000001],"straightlining":0.46153846153846156,"zigzagging":0.5,"honeypot":0,"survey":"bisbas","trial_type":"survey-template","trial_index":3,"time_elapsed":228038,"internal_node_id":"0.0-3.0","task_version":"prescreen-v0.3","browser_interactions":4,"infrequency":0},{"responses":{"Q01":"2","Q02":"2","Q03":"3"},"rt":30729.29999999999,"radio_events":[16283.299999999988,19261.5,30082.70000000001],"key_events":[],"mouse_events":[16283.299999999988,19261.5,30082.70000000001,30728.79999999999],"survey":"map","page":1,"trial_type":"survey-map","trial_index":4,"time_elapsed":258773,"internal_node_id":"0.0-4.0","task_version":"prescreen-v0.3","browser_interactions":0},{"responses":{"Q04":"3","Q05":"2","Q06":"2"},"rt":17312.300000000047,"radio_events":[9723.100000000035,13307.400000000023,16405.900000000023],"key_events":[],"mouse_events":[7142.800000000047,9723.100000000035,13307.400000000023,16405.900000000023,17311.900000000023],"survey":"map","page":2,"trial_type":"survey-map","trial_index":5,"time_elapsed":276088,"internal_node_id":"0.0-5.0","task_version":"prescreen-v0.3","browser_interactions":0},{"responses":{"Q07":"2","Q08":"3","Q09":"3"},"rt":54968.70000000001,"radio_events":[10059.299999999988,42484.90000000002,52304.100000000035],"key_events":[],"mouse_events":[10059.299999999988,42484.90000000002,51867.600000000035,52304.100000000035,54968.20000000001],"survey":"map","page":3,"trial_type":"survey-map","trial_index":6,"time_elapsed":331062,"internal_node_id":"0.0-6.0","task_version":"prescreen-v0.3","browser_interactions":0},{"responses":{"Q10":"1","Q11":"2","Q12":"1","Q13":"2","Q16":"0","Q14":"3","Q15":"2"},"rt":35346.100000000035,"radio_events":[8222.399999999965,8634.599999999977,10716.799999999988,15513.5,22456.29999999999,26058.49999999994,29918.899999999965,34133.29999999999,34773.20000000001],"key_events":[],"mouse_events":[8222.399999999965,8634.599999999977,10716.799999999988,15513.5,22456.29999999999,26058.49999999994,29918.899999999965,33515.20000000001,34133.29999999999,34509.29999999999,34773.20000000001,35345.399999999965],"survey":"map","page":4,"trial_type":"survey-map","trial_index":7,"time_elapsed":366411,"internal_node_id":"0.0-7.0","task_version":"prescreen-v0.3","browser_interactions":2,"infrequency":0},{"view_history":[{"page_index":0,"viewing_time":1780.5},{"page_index":1,"viewing_time":3900}],"rt":5681.29999999993,"trial_type":"instructions","trial_index":8,"time_elapsed":372095,"internal_node_id":"0.0-8.0","task_version":"prescreen-v0.3"},{"responses":{"01":"Yes","01_ages_12":"12","01_ages_15":"15","02":"Yes","02_ages_15":"15","03":"No","04":"No","05":"No","06":"No"},"rt":31771,"item_order":[0,1,2,3,4,5],"radio_events":[5065.70000000007,17805,20059.20000000007,27118.800000000047,28154.100000000093,29478.20000000007,30736.600000000093],"checkbox_events":[9568.70000000007,11194.400000000023,12030.300000000047,12596.70000000007,21597.600000000093],"key_events":[],"mouse_events":[0,3883.600000000093,4219.70000000007,4543.900000000023,5065.70000000007,9568.70000000007,11194.400000000023,12030.300000000047,12596.70000000007,17805,19479.20000000007,20059.20000000007,21597.600000000093,26327.800000000047,27118.800000000047,28154.100000000093,29478.20000000007,30736.600000000093,31769],"honeypot":0,"survey":"mace","page":1,"trial_type":"survey-mace","trial_index":9,"time_elapsed":403871,"internal_node_id":"0.0-9.0","task_version":"prescreen-v0.3","browser_interactions":0},{"responses":{"01":"No","02":"No","03":"No","04":"No","05":"No","06":"No","07":"No","08":"No"},"rt":19253.800000000047,"item_order":[0,1,2,3,4,5,6,7],"radio_events":[6235.400000000023,7157.800000000047,9206,9958.20000000007,10806.20000000007,12084,15038.099999999977,18458.599999999977],"checkbox_events":[],"key_events":[],"mouse_events":[5691.300000000047,6235.400000000023,7157.800000000047,8401.5,8885.400000000023,9206,9958.20000000007,10806.20000000007,12084,15038.099999999977,16336.400000000023,18094.300000000047,18458.599999999977,19251.20000000007],"honeypot":0,"survey":"mace","page":2,"trial_type":"survey-mace","trial_index":10,"time_elapsed":423130,"internal_node_id":"0.0-10.0","task_version":"prescreen-v0.3","browser_interactions":0},{"responses":{"01":"No","02":"No","03":"No","04":"No"},"rt":10589.099999999977,"item_order":[0,1,2,3],"radio_events":[2107,4293.599999999977,5931,9611.599999999977],"checkbox_events":[],"key_events":[],"mouse_events":[2107,3105,4293.599999999977,5513.29999999993,5931,8765.29999999993,9611.599999999977,10587.79999999993],"honeypot":0,"survey":"mace","page":3,"trial_type":"survey-mace","trial_index":11,"time_elapsed":433723,"internal_node_id":"0.0-11.0","task_version":"prescreen-v0.3","browser_interactions":0},{"responses":{"01":"No","02":"No"},"rt":7360.5,"item_order":[0,1],"radio_events":[2271,5963.70000000007],"checkbox_events":[],"key_events":[],"mouse_events":[2271,5963.70000000007,7359.800000000047],"honeypot":0,"survey":"mace","page":4,"trial_type":"survey-mace","trial_index":12,"time_elapsed":441087,"internal_node_id":"0.0-12.0","task_version":"prescreen-v0.3","browser_interactions":0},{"responses":{"01":"No","02":"No","03":"No","04":"No","05":"No"},"rt":11133.79999999993,"item_order":[0,1,2,3,4],"radio_events":[3045.29999999993,4315.400000000023,6227.5,9652,10410.29999999993],"checkbox_events":[],"key_events":[],"mouse_events":[3045.29999999993,4315.400000000023,6227.5,8201.699999999953,9307.699999999953,9652,10410.29999999993,11132.099999999977],"honeypot":0,"survey":"mace","page":5,"trial_type":"survey-mace","trial_index":13,"time_elapsed":452226,"internal_node_id":"0.0-13.0","task_version":"prescreen-v0.3","browser_interactions":0},{"responses":{"01":"Yes","01_ages_12":"12","01_ages_15":"15","02":"Yes","02_ages_15":"15","03":"No","04":"No","05":"No"},"rt":28698.900000000023,"item_order":[0,1,2,3,4],"radio_events":[7214.599999999977,12999.29999999993,14141.400000000023,17545.900000000023,18570,19130.199999999953],"checkbox_events":[8787.699999999953,9529,15421.599999999977],"key_events":[],"mouse_events":[6606.699999999953,7214.599999999977,8787.699999999953,9529,12999.29999999993,13811.400000000023,14141.400000000023,15035.29999999993,15421.599999999977,17111.699999999953,17545.900000000023,18570,19130.199999999953,28697.29999999993],"honeypot":0,"survey":"mace","page":6,"trial_type":"survey-mace","trial_index":14,"time_elapsed":480929,"internal_node_id":"0.0-14.0","task_version":"prescreen-v0.3","browser_interactions":2},{"responses":{"01":"No","02":"No","03":"No","04":"No","05":"No","06":"No","07":"No"},"rt":13129.300000000047,"item_order":[0,1,2,3,4,5,6],"radio_events":[3633.8000000000466,4937.900000000023,7102.300000000047,9512.400000000023,10130.400000000023,11012.699999999953,12420.599999999977],"checkbox_events":[],"key_events":[],"mouse_events":[3129.8000000000466,3633.8000000000466,4197.900000000023,4937.900000000023,5854,7102.300000000047,8254.199999999953,9282.199999999953,9512.400000000023,10130.400000000023,11012.699999999953,12420.599999999977,13126.800000000047],"honeypot":0,"survey":"mace","page":7,"trial_type":"survey-mace","trial_index":15,"time_elapsed":494063,"internal_node_id":"0.0-15.0","task_version":"prescreen-v0.3","browser_interactions":0},{"responses":{"01":"No","02":"No","03":"Yes","03_ages_10":"10","03_ages_11":"11","03_ages_12":"12","03_ages_13":"13","03_ages_14":"14","03_ages_15":"15","04":"No"},"rt":24229.400000000023,"item_order":[0,1,2,3],"radio_events":[1449.4000000000233,7820,12386.699999999953,22285.599999999977],"checkbox_events":[15609.099999999977,16045.5,16413.099999999977,16737,17141.099999999977,17839.099999999977],"key_events":[],"mouse_events":[1449.4000000000233,7820,10552.699999999953,12386.699999999953,15609.099999999977,16045.5,16413.099999999977,16737,17141.099999999977,17487.199999999953,17839.099999999977,22285.599999999977,24227.900000000023],"honeypot":0,"survey":"mace","page":8,"trial_type":"survey-mace","trial_index":16,"time_elapsed":518296,"internal_node_id":"0.0-16.0","task_version":"prescreen-v0.3","browser_interactions":0},{"responses":{"01":"Yes","01_ages_8":"8","01_ages_9":"9","01_ages_10":"10","01_ages_11":"11","01_ages_12":"12","01_ages_13":"13","01_ages_14":"14","01_ages_15":"15","02":"No","03":"Yes","03_ages_7":"7","03_ages_8":"8","03_ages_9":"9","03_ages_10":"10","03_ages_11":"11","03_ages_12":"12","03_ages_13":"13","03_ages_14":"14","03_ages_15":"15","03_ages_16":"16","04":"Yes","04_ages_8":"8"},"rt":46690.70000000001,"item_order":[0,1,2,3],"radio_events":[5205.0999999999185,20112.70000000001,24639.00000000006,38746.50000000006],"checkbox_events":[13967.500000000058,14310.399999999965,15316.000000000058,15784.000000000058,16610.399999999965,17040.00000000006,18514.399999999965,19044.59999999992,28285.399999999965,28485.50000000006,28833.50000000006,29503.50000000006,29985.59999999992,30301.59999999992,30789.800000000105,31128.00000000006,31573.800000000105,32017.800000000105,32334.00000000006,33196.300000000105,40198.800000000105,41814.800000000105,44577.00000000006,45331.20000000001,46075.20000000001],"key_events":[],"mouse_events":[4643,5205.0999999999185,13967.500000000058,14310.399999999965,14763.899999999965,15316.000000000058,15784.000000000058,16156.099999999919,16610.399999999965,17040.00000000006,18514.399999999965,18818.399999999965,19044.59999999992,20112.70000000001,21386.59999999992,22714.800000000105,24639.00000000006,27603.20000000001,27837.300000000105,28055.20000000001,28285.399999999965,28485.50000000006,28833.50000000006,29503.50000000006,29985.59999999992,30301.59999999992,30789.800000000105,31128.00000000006,31573.800000000105,32017.800000000105,32334.00000000006,32698.00000000006,33196.300000000105,38746.50000000006,40198.800000000105,41120.50000000006,41814.800000000105,43958.70000000001,44577.00000000006,45159.09999999992,45331.20000000001,46075.20000000001,46689.399999999965],"honeypot":0,"survey":"mace","page":9,"trial_type":"survey-mace","trial_index":17,"time_elapsed":564990,"internal_node_id":"0.0-17.0","task_version":"prescreen-v0.3","browser_interactions":0},{"responses":{"01":"No","02":"No","03":"No","04":"No","05":"No","06":"Yes","06_ages_17":"17","07":"Yes","07_ages_8":"8","07_ages_9":"9","07_ages_10":"10","07_ages_11":"11","07_ages_12":"12","07_ages_13":"13","07_ages_14":"14","07_ages_15":"15","07_ages_16":"16","07_ages_17":"17","07_ages_18":"18","08":"Yes","08_ages_8":"8","08_ages_9":"9","08_ages_10":"10","08_ages_11":"11","08_ages_12":"12","08_ages_13":"13","08_ages_14":"14","08_ages_15":"15","08_ages_16":"16","08_ages_17":"17","08_ages_18":"18"},"rt":44859.39999999991,"item_order":[0,1,2,3,4,5,6,7],"radio_events":[2914.100000000093,3834.399999999907,4430.300000000047,6432.800000000047,10790.800000000047,14617.899999999907,15733.300000000047,20431.899999999907,43466.5],"checkbox_events":[12294.899999999907,23636.100000000093,24162.100000000093,24672.800000000047,25056.399999999907,25970.399999999907,26336.600000000093,26634.699999999953,26932.600000000093,27224.699999999953,27550.5,28816.5,29476.800000000047,29824.800000000047,30146.899999999907,30727,31296.899999999907,31663.100000000093,32016.800000000047,32566.800000000047,33201.30000000005,33525.30000000005,33829.19999999995],"key_events":[],"mouse_events":[2483.6999999999534,2914.100000000093,3408,3834.399999999907,4430.300000000047,5526.399999999907,6432.800000000047,7312.5,10790.800000000047,12294.899999999907,14617.899999999907,15733.300000000047,20034.199999999953,20431.899999999907,23636.100000000093,24162.100000000093,24672.800000000047,25056.399999999907,25366.5,25970.399999999907,26336.600000000093,26634.699999999953,26932.600000000093,27224.699999999953,27550.5,28816.5,29476.800000000047,29824.800000000047,30146.899999999907,30476.699999999953,30727,31296.899999999907,31663.100000000093,32016.800000000047,32322.899999999907,32566.800000000047,32985,33201.30000000005,33525.30000000005,33829.19999999995,38475.89999999991,43466.5,44856.60000000009],"honeypot":0,"survey":"mace","page":10,"trial_type":"survey-mace","trial_index":18,"time_elapsed":609855,"internal_node_id":"0.0-18.0","task_version":"prescreen-v0.3","browser_interactions":0,"instructed":0},{"rt":1997.4000000001397,"trial_type":"mental-health-alert","trial_index":19,"time_elapsed":611856,"internal_node_id":"0.0-19.0","task_version":"prescreen-v0.3","interactions":"[{\"event\":\"blur\",\"trial\":3,\"time\":203347},{\"event\":\"focus\",\"trial\":3,\"time\":203441},{\"event\":\"blur\",\"trial\":3,\"time\":203457},{\"event\":\"focus\",\"trial\":3,\"time\":206285},{\"event\":\"blur\",\"trial\":7,\"time\":333664},{\"event\":\"focus\",\"trial\":7,\"time\":339193},{\"event\":\"blur\",\"trial\":14,\"time\":452759},{\"event\":\"focus\",\"trial\":14,\"time\":458693}]"}]