[{"view_history":[{"page_index":0,"viewing_time":3357.699999988079},{"page_index":1,"viewing_time":4488.70000000298},{"page_index":2,"viewing_time":4757.70000000298},{"page_index":3,"viewing_time":1498.4000000059605}],"rt":14103.39999999106,"trial_type":"instructions","trial_index":0,"time_elapsed":14117,"internal_node_id":"0.0-0.0","task_version":"prescreen-v0.3"},{"rt":20079.39999999106,"responses":{"age":"20","gender-categorical":"Female","gender-free-response":"","ethnicity":"Hispanic or Latino","race":["White"],"education":"Associate degree"},"trial_type":"survey-demo","trial_index":1,"time_elapsed":34205,"internal_node_id":"0.0-1.0","task_version":"prescreen-v0.3"},{"responses":{"Q20":"2","Q08":"1","Q11":"0","Q10":"1","Q02":"0","Q19":"0","Q07":"2","Q01":"0","Q17":"1","Q06":"0","Q09":"3","Q04":"0","Q13":"0","Q12":"1","Q21":"3","Q03":"0","Q15":"1","Q18":"1","Q05":"0","Q16":"0","Q14":"2"},"rt":280688.59999999404,"item_order":[19,7,10,9,1,18,6,0,16,5,8,3,12,11,20,2,14,17,4,15,13],"radio_events":[14761.20000000298,28541.79999999702,34576,44433.39999999106,47882.29999999702,64923.39999999106,68939.70000000298,99971.39999999106,107174.09999999404,126206.20000000298,133251.70000000298,139953.5,151988.70000000298,156749.09999999404,175928.09999999404,191872.09999999404,196795.70000000298,200641.59999999404,212541,223620.70000000298,229100.09999999404,239494.29999999702,252623,264690.59999999404,267224.59999999404,272799.700000003],"key_events":[],"mouse_events":[14761.20000000298,28541.79999999702,34576,44433.39999999106,47882.29999999702,64923.39999999106,68939.70000000298,99971.39999999106,107174.09999999404,126206.20000000298,133251.70000000298,139953.5,151988.70000000298,156749.09999999404,175928.09999999404,191872.09999999404,196795.70000000298,200641.59999999404,212541,222835.20000000298,223620.70000000298,229100.09999999404,239494.29999999702,252623,264690.59999999404,267224.59999999404,272799.700000003,274394.799999997,280682.700000003],"straightlining":0.47619047619047616,"zigzagging":0.6,"honeypot":0,"survey":"sns","trial_type":"survey-template","trial_index":2,"time_elapsed":314912,"internal_node_id":"0.0-2.0","task_version":"prescreen-v0.3","browser_interactions":0,"infrequency":0},{"responses":{"Q12":"0","Q03":"3","Q06":"3","Q04":"3","Q05":"3","Q07":"1","Q08":"2","Q11":"1","Q02":"3","Q09":"2","Q13":"0","Q01":"3","Q10":"2"},"rt":163382.30000001192,"item_order":[11,2,5,3,4,6,7,10,1,8,12,0,9],"radio_events":[52045.90000000596,61448.20000000298,69078.30000001192,75708.20000000298,83396.90000000596,101453.70000000298,104822.5,115038.40000000596,122443,142464,147669.20000000298,152289.80000001192,156241.90000000596,161475.5],"key_events":[],"mouse_events":[52045.90000000596,61448.20000000298,69078.30000001192,75708.20000000298,83396.90000000596,101453.70000000298,104822.5,115038.40000000596,122443,142464,147669.20000000298,152289.80000001192,156241.90000000596,161475.5,163379.10000000894],"straightlining":0.46153846153846156,"zigzagging":0.5,"honeypot":0,"survey":"bisbas","trial_type":"survey-template","trial_index":3,"time_elapsed":478305,"internal_node_id":"0.0-3.0","task_version":"prescreen-v0.3","browser_interactions":0,"infrequency":0},{"responses":{"Q01":"2","Q02":"3","Q03":"3"},"rt":44372.5,"radio_events":[15694,33302.60000000894,41990.10000000894],"key_events":[],"mouse_events":[15694,33302.60000000894,41990.10000000894,44370.90000000596],"survey":"map","page":1,"trial_type":"survey-map","trial_index":4,"time_elapsed":522684,"internal_node_id":"0.0-4.0","task_version":"prescreen-v0.3","browser_interactions":0},{"responses":{"Q04":"2","Q05":"3","Q06":"3"},"rt":60552,"radio_events":[20536.70000000298,30053.10000000894,47137.5,49485.40000000596,54925.40000000596],"key_events":[],"mouse_events":[20536.70000000298,30053.10000000894,47137.5,49485.40000000596,54406.29999999702,54925.40000000596,60550.79999999702],"survey":"map","page":2,"trial_type":"survey-map","trial_index":5,"time_elapsed":583242,"internal_node_id":"0.0-5.0","task_version":"prescreen-v0.3","browser_interactions":0},{"responses":{"Q07":"3","Q08":"4","Q09":"3"},"rt":34929.70000000298,"radio_events":[16390.60000000894,23332,32757.5],"key_events":[],"mouse_events":[16390.60000000894,23332,32757.5,34928.5],"survey":"map","page":3,"trial_type":"survey-map","trial_index":6,"time_elapsed":618177,"internal_node_id":"0.0-6.0","task_version":"prescreen-v0.3","browser_interactions":0},{"responses":{"Q10":"4","Q11":"3","Q12":"2","Q13":"2","Q16":"0","Q14":"4","Q15":"4"},"rt":77684.79999999702,"radio_events":[11785.70000000298,14976.10000000894,21865.29999999702,60010,66617.79999999702,72362.5,75884.90000000596],"key_events":[],"mouse_events":[11785.70000000298,14976.10000000894,21865.29999999702,60010,66617.79999999702,72362.5,75884.90000000596,77682.20000000298],"survey":"map","page":4,"trial_type":"survey-map","trial_index":7,"time_elapsed":695871,"internal_node_id":"0.0-7.0","task_version":"prescreen-v0.3","browser_interactions":0,"infrequency":0},{"view_history":[{"page_index":0,"viewing_time":3060.9000000059605},{"page_index":1,"viewing_time":4922.70000000298}],"rt":7985,"trial_type":"instructions","trial_index":8,"time_elapsed":703859,"internal_node_id":"0.0-8.0","task_version":"prescreen-v0.3"},{"responses":{"01":"No","02":"No","03":"No","04":"No","05":"No","06":"No"},"rt":27923.30000001192,"item_order":[0,1,2,3,4,5],"radio_events":[10711.60000000894,14750.20000000298,19275.60000000894,21081.80000001192,23955.90000000596,26199.10000000894],"checkbox_events":[],"key_events":[],"mouse_events":[0.10000000894069672,10711.60000000894,14750.20000000298,19275.60000000894,21081.80000001192,22806.20000000298,23955.90000000596,26199.10000000894,27916.20000000298],"honeypot":0,"survey":"mace","page":1,"trial_type":"survey-mace","trial_index":9,"time_elapsed":731793,"internal_node_id":"0.0-9.0","task_version":"prescreen-v0.3","browser_interactions":0},{"responses":{"01":"No","02":"No","03":"No","04":"No","05":"No","06":"No","07":"No","08":"No"},"rt":54781.09999999404,"item_order":[0,1,2,3,4,5,6,7],"radio_events":[3120,5427.29999999702,17578.79999999702,26791.09999999404,31365.70000000298,33179.29999999702,36174.79999999702,39340.79999999702,40385.20000000298],"checkbox_events":[],"key_events":[],"mouse_events":[3120,5427.29999999702,17578.79999999702,26791.09999999404,31365.70000000298,33179.29999999702,36174.79999999702,39340.79999999702,40385.20000000298,54772.5],"honeypot":0,"survey":"mace","page":2,"trial_type":"survey-mace","trial_index":10,"time_elapsed":786582,"internal_node_id":"0.0-10.0","task_version":"prescreen-v0.3","browser_interactions":0},{"responses":{"01":"No","02":"No","03":"No","04":"No"},"rt":24963.59999999404,"item_order":[0,1,2,3],"radio_events":[10584.29999999702,20828.69999998808,22197.5,23638.39999999106],"checkbox_events":[],"key_events":[],"mouse_events":[10584.29999999702,20828.69999998808,22197.5,23638.39999999106,24958.19999998808],"honeypot":0,"survey":"mace","page":3,"trial_type":"survey-mace","trial_index":11,"time_elapsed":811550,"internal_node_id":"0.0-11.0","task_version":"prescreen-v0.3","browser_interactions":0},{"responses":{"01":"No","02":"No"},"rt":10728.5,"item_order":[0,1],"radio_events":[8524.10000000894,9349.800000011921],"checkbox_events":[],"key_events":[],"mouse_events":[8524.10000000894,9349.800000011921,10725.90000000596],"honeypot":0,"survey":"mace","page":4,"trial_type":"survey-mace","trial_index":12,"time_elapsed":822277,"internal_node_id":"0.0-12.0","task_version":"prescreen-v0.3","browser_interactions":0},{"responses":{"01":"No","02":"No","03":"No","04":"No","05":"No"},"rt":32205.29999999702,"item_order":[0,1,2,3,4],"radio_events":[12448.20000000298,16704.29999999702,25859.20000000298,27996.79999999702,31268.09999999404],"checkbox_events":[],"key_events":[],"mouse_events":[12448.20000000298,16704.29999999702,25859.20000000298,27996.79999999702,31268.09999999404,32199.09999999404],"honeypot":0,"survey":"mace","page":5,"trial_type":"survey-mace","trial_index":13,"time_elapsed":854469,"internal_node_id":"0.0-13.0","task_version":"prescreen-v0.3","browser_interactions":0},{"responses":{"01":"No","02":"Yes","02_ages_12":"12","02_ages_13":"13","03":"No","04":"No","05":"No"},"rt":30803.79999999702,"item_order":[0,1,2,3,4],"radio_events":[10452.70000000298,12306.89999999106,22474.29999999702,27063.09999999404,29540.29999999702],"checkbox_events":[15545.29999999702,16208.89999999106],"key_events":[],"mouse_events":[10452.70000000298,12306.89999999106,15545.29999999702,16208.89999999106,22474.29999999702,27063.09999999404,29540.29999999702,30795.70000000298],"honeypot":0,"survey":"mace","page":6,"trial_type":"survey-mace","trial_index":14,"time_elapsed":885277,"internal_node_id":"0.0-14.0","task_version":"prescreen-v0.3","browser_interactions":0},{"responses":{"01":"No","02":"Yes","02_ages_12":"12","02_ages_13":"13","03":"No","04":"No","05":"No","06":"No","07":"Yes","07_ages_12":"12"},"rt":115723.90000000596,"item_order":[0,1,2,3,4,5,6],"radio_events":[5231.5,11325.29999999702,23854.20000000298,27084.5,30331.5,32711.70000000298,57943.10000000894,98004.60000000894,113221.90000000596],"checkbox_events":[12709.70000000298,19028.5,59602.70000000298],"key_events":[],"mouse_events":[5231.5,11325.29999999702,12709.70000000298,19028.5,23854.20000000298,27084.5,30331.5,31958.5,32711.70000000298,57943.10000000894,59602.70000000298,98004.60000000894,113221.90000000596,115716.40000000596],"honeypot":0,"survey":"mace","page":7,"trial_type":"survey-mace","trial_index":15,"time_elapsed":1001010,"internal_node_id":"0.0-15.0","task_version":"prescreen-v0.3","browser_interactions":0},{"responses":{"01":"No","02":"Yes","02_ages_6":"6","02_ages_7":"7","02_ages_8":"8","02_ages_9":"9","02_ages_10":"10","02_ages_11":"11","02_ages_12":"12","02_ages_13":"13","02_ages_14":"14","02_ages_15":"15","02_ages_16":"16","02_ages_17":"17","02_ages_18":"18","03":"No","04":"Yes","04_ages_9":"9","04_ages_10":"10","04_ages_11":"11","04_ages_12":"12","04_ages_13":"13","04_ages_14":"14","04_ages_15":"15","04_ages_16":"16","04_ages_17":"17","04_ages_18":"18"},"rt":81995,"item_order":[0,1,2,3],"radio_events":[15466.29999999702,24083.89999999106,57251.39999999106,59769.39999999106],"checkbox_events":[37398.59999999404,39600.69999998808,40353.5,41972.5,42669.09999999404,43308.69999998808,43973.09999999404,44685.09999999404,45341,45956.59999999404,46627.89999999106,47453.89999999106,48150.29999999702,62643.69999998808,63104.39999999106,63671.79999999702,65703.59999999404,66569.89999999106,67978.69999998808,75163.89999999106,75763.09999999404,76256.79999999702,76854.19999998808,77365.89999999106,78022.19999998808,79171.59999999404,79649.39999999106,80078.5,81066.5],"key_events":[],"mouse_events":[15466.29999999702,24083.89999999106,37398.59999999404,37884,38362.19999998808,39600.69999998808,40353.5,41074.29999999702,41438.09999999404,41972.5,42669.09999999404,43308.69999998808,43973.09999999404,44685.09999999404,45341,45956.59999999404,46627.89999999106,47453.89999999106,48150.29999999702,57251.39999999106,59769.39999999106,62643.69999998808,63104.39999999106,63671.79999999702,64286.69999998808,65703.59999999404,66148.69999998808,66569.89999999106,67978.69999998808,75163.89999999106,75763.09999999404,76256.79999999702,76854.19999998808,77365.89999999106,78022.19999998808,78661.5,79171.59999999404,79649.39999999106,80078.5,80613.09999999404,81066.5,81989.59999999404],"honeypot":0,"survey":"mace","page":8,"trial_type":"survey-mace","trial_index":16,"time_elapsed":1083012,"internal_node_id":"0.0-16.0","task_version":"prescreen-v0.3","browser_interactions":0},{"responses":{"01":"Yes","01_ages_1":"1","01_ages_2":"2","01_ages_3":"3","01_ages_4":"4","01_ages_5":"5","01_ages_6":"6","01_ages_7":"7","01_ages_8":"8","01_ages_9":"9","01_ages_10":"10","01_ages_11":"11","01_ages_12":"12","01_ages_13":"13","01_ages_14":"14","01_ages_15":"15","01_ages_16":"16","01_ages_17":"17","01_ages_18":"18","02":"Yes","02_ages_1":"1","02_ages_2":"2","02_ages_3":"3","02_ages_4":"4","02_ages_5":"5","02_ages_6":"6","02_ages_7":"7","02_ages_8":"8","02_ages_9":"9","02_ages_10":"10","02_ages_11":"11","02_ages_12":"12","02_ages_13":"13","02_ages_14":"14","02_ages_15":"15","02_ages_16":"16","02_ages_17":"17","02_ages_18":"18","03":"Yes","03_ages_1":"1","03_ages_2":"2","03_ages_3":"3","03_ages_4":"4","03_ages_5":"5","03_ages_6":"6","03_ages_7":"7","03_ages_8":"8","03_ages_9":"9","03_ages_10":"10","03_ages_11":"11","03_ages_12":"12","03_ages_13":"13","03_ages_14":"14","03_ages_15":"15","03_ages_16":"16","03_ages_17":"17","03_ages_18":"18","04":"Yes","04_ages_1":"1","04_ages_2":"2","04_ages_3":"3","04_ages_4":"4","04_ages_5":"5","04_ages_6":"6","04_ages_7":"7","04_ages_8":"8","04_ages_9":"9","04_ages_10":"10","04_ages_11":"11","04_ages_12":"12","04_ages_13":"13","04_ages_14":"14","04_ages_15":"15","04_ages_16":"16","04_ages_17":"17","04_ages_18":"18"},"rt":112202.20000000298,"item_order":[0,1,2,3],"radio_events":[6958.5,27868.89999999106,57990.20000000298,94434.70000000298],"checkbox_events":[12059.39999999106,12642.09999999404,13646.09999999404,14099.09999999404,14617.39999999106,15257.20000000298,16172.39999999106,16657.79999999702,18123.20000000298,18560.5,19135.5,19734.20000000298,20333.59999999404,20965.29999999702,21507.29999999702,22478.5,22948.09999999404,23409.89999999106,29860.5,30523.89999999106,31026.39999999106,31584.79999999702,32070.79999999702,33195.89999999106,33973.29999999702,34661.5,35325.20000000298,36353.29999999702,40927.29999999702,41363.70000000298,41801.59999999404,42368.39999999106,42910.39999999106,45719.89999999106,47168.79999999702,47638.29999999702,48205,48715.09999999404,49411.39999999106,50715,51694.29999999702,59447.70000000298,60078.89999999106,60831.5,61447,62045.89999999106,62604.79999999702,63203.70000000298,65065.79999999702,66126.59999999404,66701.20000000298,67291.79999999702,67898.09999999404,68506.09999999404,69081.09999999404,69671.89999999106,71623,72173.20000000298,72902.29999999702,87230,87682.29999999702,88161.39999999106,88816.79999999702,89253.89999999106,95624.59999999404,96410.09999999404,97146.59999999404,97841.79999999702,98709.20000000298,99122,100061.59999999404,101089.20000000298,102157.89999999106,102684.20000000298,103170,104085.09999999404,104667.59999999404,105388.09999999404,106076.29999999702,106731.89999999106,107461,108181.29999999702],"key_events":[],"mouse_events":[6958.5,9954.29999999702,12059.39999999106,12642.09999999404,13249.29999999702,13646.09999999404,14099.09999999404,14617.39999999106,15257.20000000298,16172.39999999106,16657.79999999702,17192,17540.20000000298,18123.20000000298,18560.5,19135.5,19734.20000000298,20333.59999999404,20965.29999999702,21507.29999999702,22478.5,22948.09999999404,23409.89999999106,27868.89999999106,29860.5,30523.89999999106,31026.39999999106,31584.79999999702,32070.79999999702,32677.59999999404,33195.89999999106,33973.29999999702,34661.5,35325.20000000298,35956.70000000298,36353.29999999702,36814.5,39882.59999999404,40927.29999999702,41363.70000000298,41801.59999999404,42368.39999999106,42910.39999999106,45210.09999999404,45719.89999999106,46327.09999999404,46740.20000000298,47168.79999999702,47638.29999999702,48205,48715.09999999404,49411.39999999106,50091.39999999106,50715,51694.29999999702,57990.20000000298,59447.70000000298,60078.89999999106,60831.5,61447,62045.89999999106,62604.79999999702,63203.70000000298,63875.59999999404,64304.89999999106,64644.89999999106,65065.79999999702,65486.70000000298,66126.59999999404,66701.20000000298,67291.79999999702,67898.09999999404,68506.09999999404,69081.09999999404,69671.89999999106,71623,72173.20000000298,72902.29999999702,87230,87682.29999999702,88161.39999999106,88816.79999999702,89253.89999999106,94434.70000000298,95624.59999999404,96013.29999999702,96410.09999999404,97146.59999999404,97841.79999999702,98709.20000000298,99122,100061.59999999404,100668.20000000298,101089.20000000298,101639.79999999702,102157.89999999106,102684.20000000298,103170,104085.09999999404,104667.59999999404,105388.09999999404,106076.29999999702,106731.89999999106,107461,108181.29999999702,112197],"honeypot":0,"survey":"mace","page":9,"trial_type":"survey-mace","trial_index":17,"time_elapsed":1195222,"internal_node_id":"0.0-17.0","task_version":"prescreen-v0.3","browser_interactions":0},{"responses":{"01":"Yes","01_ages_9":"9","01_ages_10":"10","01_ages_11":"11","01_ages_12":"12","01_ages_13":"13","01_ages_14":"14","01_ages_15":"15","01_ages_16":"16","02":"Yes","02_ages_9":"9","02_ages_10":"10","02_ages_11":"11","02_ages_12":"12","02_ages_13":"13","02_ages_14":"14","02_ages_15":"15","03":"Yes","03_ages_14":"14","03_ages_15":"15","03_ages_16":"16","03_ages_17":"17","03_ages_18":"18","04":"Yes","04_ages_9":"9","04_ages_10":"10","04_ages_11":"11","04_ages_12":"12","04_ages_13":"13","04_ages_14":"14","04_ages_15":"15","04_ages_16":"16","04_ages_17":"17","04_ages_18":"18","05":"No","06":"Yes","06_ages_17":"17","07":"Yes","07_ages_1":"1","07_ages_2":"2","07_ages_3":"3","07_ages_4":"4","07_ages_5":"5","07_ages_6":"6","07_ages_7":"7","07_ages_8":"8","07_ages_9":"9","07_ages_10":"10","07_ages_11":"11","07_ages_12":"12","07_ages_13":"13","07_ages_14":"14","07_ages_15":"15","07_ages_16":"16","07_ages_17":"17","07_ages_18":"18","08":"Yes","08_ages_10":"10","08_ages_11":"11","08_ages_12":"12","08_ages_13":"13","08_ages_14":"14","08_ages_15":"15","08_ages_16":"16","08_ages_17":"17","08_ages_18":"18"},"rt":107011.5,"item_order":[0,1,2,3,4,5,6,7],"radio_events":[5974.800000011921,18442.60000000894,30359.10000000894,50160.30000001192,66295.5,70902.5,78415.5,95927.30000001192],"checkbox_events":[10897.40000000596,11479.90000000596,12030.40000000596,12637.70000000298,13277.300000011921,13868.300000011921,14459.5,15195.800000011921,22514.60000000894,23145.90000000596,23745.10000000894,24409.5,25040.5,25647.5,26732.70000000298,38154.5,39222.5,42178.10000000894,44809.10000000894,45456.90000000596,54856.10000000894,55438.60000000894,55867.90000000596,56337.5,57001.40000000596,57462.40000000596,58750.20000000298,59479.20000000298,60037,60530.70000000298,72869.80000001192,82925.60000000894,83961.40000000596,84431.20000000298,84900.60000000894,85313.60000000894,85944.70000000298,86358.30000001192,87102.90000000596,87758,88260.70000000298,89394,89855.40000000596,90608.5,91102.20000000298,91855.30000001192,92340.70000000298,93020.90000000596,93547.60000000894,99765.10000000894,100299.10000000894,100857.60000000894,101926.60000000894,102403.80000001192,102890,103399.80000001192,104606.20000000298,105051.30000001192],"key_events":[],"mouse_events":[5974.800000011921,10897.40000000596,11479.90000000596,12030.40000000596,12637.70000000298,13277.300000011921,13868.300000011921,14459.5,15195.800000011921,18442.60000000894,22514.60000000894,23145.90000000596,23745.10000000894,24409.5,25040.5,25647.5,26270.60000000894,26732.70000000298,30359.10000000894,38154.5,38680.5,39222.5,42178.10000000894,44347.70000000298,44809.10000000894,45456.90000000596,50160.30000001192,54856.10000000894,55438.60000000894,55867.90000000596,56337.5,57001.40000000596,57462.40000000596,57923.5,58321.20000000298,58750.20000000298,59479.20000000298,60037,60530.70000000298,66295.5,70902.5,72869.80000001192,78415.5,82925.60000000894,83961.40000000596,84431.20000000298,84900.60000000894,85313.60000000894,85944.70000000298,86358.30000001192,87102.90000000596,87758,88260.70000000298,88795,89394,89855.40000000596,90608.5,91102.20000000298,91855.30000001192,92340.70000000298,93020.90000000596,93547.60000000894,95927.30000001192,99765.10000000894,100299.10000000894,100857.60000000894,101392.10000000894,101926.60000000894,102403.80000001192,102890,103399.80000001192,104606.20000000298,105051.30000001192,107002.60000000894],"honeypot":0,"survey":"mace","page":10,"trial_type":"survey-mace","trial_index":18,"time_elapsed":1302243,"internal_node_id":"0.0-18.0","task_version":"prescreen-v0.3","browser_interactions":0,"instructed":0},{"rt":6341.399999991059,"trial_type":"mental-health-alert","trial_index":19,"time_elapsed":1308588,"internal_node_id":"0.0-19.0","task_version":"prescreen-v0.3","interactions":"[]"}]