[{"view_history":[{"page_index":0,"viewing_time":4681.929999962449},{"page_index":1,"viewing_time":5643.079999834299},{"page_index":2,"viewing_time":7107.315000146627},{"page_index":3,"viewing_time":1639.894999563694}],"rt":19073.899999260902,"trial_type":"instructions","trial_index":0,"time_elapsed":19088,"internal_node_id":"0.0-0.0","task_version":"prescreen-v0.3"},{"rt":21543.270000256598,"responses":{"age":"19","gender-categorical":"Female","gender-free-response":"","ethnicity":"Not Hispanic or Latino","race":["White"],"education":"Some college"},"trial_type":"survey-demo","trial_index":1,"time_elapsed":40640,"internal_node_id":"0.0-1.0","task_version":"prescreen-v0.3"},{"responses":{"Q19":"0","Q17":"0","Q12":"0","Q14":"2","Q11":"0","Q10":"0","Q15":"2","Q16":"1","Q05":"0","Q03":"0","Q04":"0","Q08":"1","Q20":"1","Q07":"0","Q21":"3","Q13":"1","Q01":"0","Q02":"0","Q09":"0","Q06":"1","Q18":"0"},"rt":145737.48499993235,"item_order":[18,16,11,13,10,9,14,15,4,2,3,7,19,6,20,12,0,1,8,5,17],"radio_events":[19578.86999938637,22509.859999641776,26782.484999857843,31668.65499969572,35295.15999928117,38040.44499993324,46633.15000012517,60871.80999945849,62762.059999629855,70386.35499961674,73851.22499987483,77113.87499980628,82477.84500010312,88648.04499968886,100602.16999985278,105495.24000007659,111747.40999937057,116710.5000000447,120534.54499971122,124580.56499995291,138702.6749998331,144125.7149996236],"key_events":[],"mouse_events":[19578.86999938637,22509.859999641776,26782.484999857843,31668.65499969572,35295.15999928117,38040.44499993324,46633.15000012517,60871.80999945849,62762.059999629855,70386.35499961674,73851.22499987483,77113.87499980628,82477.84500010312,88648.04499968886,100602.16999985278,105495.24000007659,111747.40999937057,116710.5000000447,120534.54499971122,124580.56499995291,138702.6749998331,144125.7149996236,145734.00999978185],"straightlining":0.6190476190476191,"zigzagging":0.4,"honeypot":0,"survey":"sns","trial_type":"survey-template","trial_index":2,"time_elapsed":186383,"internal_node_id":"0.0-2.0","task_version":"prescreen-v0.3","browser_interactions":0,"infrequency":0},{"responses":{"Q11":"1","Q02":"1","Q10":"2","Q07":"3","Q09":"2","Q13":"0","Q03":"1","Q04":"3","Q12":"1","Q08":"2","Q05":"3","Q01":"2","Q06":"2"},"rt":81152.01500058174,"item_order":[10,1,9,6,8,12,2,3,11,7,4,0,5],"radio_events":[8172.1000000834465,11927.600000053644,17603.91000006348,21482.189999893308,25479.790000244975,29292.10999980569,40453.23500037193,46163.00000064075,58140.00499993563,62517.98000000417,69584.63500067592,73493.56999993324,76603.42499986291,79825.21500065923],"key_events":[],"mouse_events":[8172.1000000834465,11927.600000053644,17603.91000006348,21482.189999893308,25479.790000244975,29292.10999980569,40453.23500037193,46163.00000064075,58140.00499993563,62517.98000000417,69584.63500067592,73493.56999993324,76603.42499986291,79825.21500065923,81149.79999978095],"straightlining":0.38461538461538464,"zigzagging":0.5833333333333334,"honeypot":0,"survey":"bisbas","trial_type":"survey-template","trial_index":3,"time_elapsed":267540,"internal_node_id":"0.0-3.0","task_version":"prescreen-v0.3","browser_interactions":0,"infrequency":0},{"responses":{"Q01":"4","Q02":"4","Q03":"4"},"rt":16518.86000018567,"radio_events":[5880.495000630617,9296.905000694096,15224.580000154674],"key_events":[],"mouse_events":[5880.495000630617,9296.905000694096,15224.580000154674,16517.730000428855],"survey":"map","page":1,"trial_type":"survey-map","trial_index":4,"time_elapsed":284063,"internal_node_id":"0.0-4.0","task_version":"prescreen-v0.3","browser_interactions":0},{"responses":{"Q04":"3","Q05":"4","Q06":"3"},"rt":21496.155000291765,"radio_events":[5503.299999982119,15421.089999377728,20574.284999631345],"key_events":[],"mouse_events":[5503.299999982119,15421.089999377728,20574.284999631345,21495.159999467432],"survey":"map","page":2,"trial_type":"survey-map","trial_index":5,"time_elapsed":305562,"internal_node_id":"0.0-5.0","task_version":"prescreen-v0.3","browser_interactions":0},{"responses":{"Q07":"1","Q08":"0","Q09":"4"},"rt":21349.390000104904,"radio_events":[8225.279999896884,15347.219999879599,20233.1949993968],"key_events":[],"mouse_events":[8225.279999896884,15347.219999879599,20233.1949993968,21348.399999551475],"survey":"map","page":3,"trial_type":"survey-map","trial_index":6,"time_elapsed":326914,"internal_node_id":"0.0-6.0","task_version":"prescreen-v0.3","browser_interactions":0},{"responses":{"Q10":"3","Q11":"3","Q12":"1","Q13":"1","Q16":"0","Q14":"2","Q15":"2"},"rt":46653.92000041902,"radio_events":[8693.780000321567,12927.42000054568,19744.080000557005,28008.035000413656,33767.90999993682,39946.28000073135,45472.24000003189],"key_events":[],"mouse_events":[8693.780000321567,12927.42000054568,19744.080000557005,28008.035000413656,33767.90999993682,39946.28000073135,45472.24000003189,46651.88000071794],"survey":"map","page":4,"trial_type":"survey-map","trial_index":7,"time_elapsed":373571,"internal_node_id":"0.0-7.0","task_version":"prescreen-v0.3","browser_interactions":0,"infrequency":0},{"view_history":[{"page_index":0,"viewing_time":3718.22000015527},{"page_index":1,"viewing_time":6589.0199998393655}],"rt":10307.644999586046,"trial_type":"instructions","trial_index":8,"time_elapsed":383880,"internal_node_id":"0.0-8.0","task_version":"prescreen-v0.3"},{"responses":{"01":"No","02":"Yes","02_ages_8":"8","02_ages_9":"9","02_ages_10":"10","02_ages_11":"11","02_ages_12":"12","03":"No","04":"No","05":"No","06":"Yes","06_ages_4":"4","06_ages_5":"5","06_ages_6":"6"},"rt":74522.33500033617,"item_order":[0,1,2,3,4,5],"radio_events":[14693.749999627471,18747.90500011295,46925.974999554455,50141.28000009805,52168.58999989927,65309.72000025213],"checkbox_events":[25274.85499996692,32139.20500036329,33746.15000002086,34618.75999998301,37770.98499983549,69259.94999986142,70002.43000034243,70979.03999965638],"key_events":[],"mouse_events":[0.11499971151351929,14693.749999627471,18747.90500011295,25274.85499996692,32139.20500036329,33746.15000002086,34618.75999998301,37770.98499983549,46925.974999554455,50141.28000009805,52168.58999989927,65309.72000025213,69259.94999986142,70002.43000034243,70979.03999965638,74517.16000027955],"honeypot":0,"survey":"mace","page":1,"trial_type":"survey-mace","trial_index":9,"time_elapsed":458411,"internal_node_id":"0.0-9.0","task_version":"prescreen-v0.3","browser_interactions":0},{"responses":{"01":"No","02":"No","03":"Yes","03_ages_4":"4","03_ages_5":"5","03_ages_6":"6","03_ages_7":"7","04":"No","05":"No","06":"No","07":"No","08":"No"},"rt":36787.630000151694,"item_order":[0,1,2,3,4,5,6,7],"radio_events":[7057.009999640286,12751.67499948293,14755.669999867678,27040.919999592006,29173.534999601543,31167.41000022739,33097.849999554455,35714.58499971777],"checkbox_events":[16822.540000081062,17468.81499979645,18389.429999515414,21741.669999435544],"key_events":[],"mouse_events":[7057.009999640286,12751.67499948293,14755.669999867678,16822.540000081062,17468.81499979645,18389.429999515414,21741.669999435544,27040.919999592006,29173.534999601543,31167.41000022739,33097.849999554455,35714.58499971777,36781.20000008494],"honeypot":0,"survey":"mace","page":2,"trial_type":"survey-mace","trial_index":10,"time_elapsed":495204,"internal_node_id":"0.0-10.0","task_version":"prescreen-v0.3","browser_interactions":0},{"responses":{"01":"No","02":"No","03":"No","04":"No"},"rt":15426.884999498725,"item_order":[0,1,2,3],"radio_events":[4391.149999573827,10173.285000026226,12621.170000173151,14543.539999984205],"checkbox_events":[],"key_events":[],"mouse_events":[4391.149999573827,10173.285000026226,12621.170000173151,14543.539999984205,15423.489999957383],"honeypot":0,"survey":"mace","page":3,"trial_type":"survey-mace","trial_index":11,"time_elapsed":510635,"internal_node_id":"0.0-11.0","task_version":"prescreen-v0.3","browser_interactions":0},{"responses":{"01":"No","02":"No"},"rt":17876.509999856353,"item_order":[0,1],"radio_events":[13124.520000070333,16791.925000026822],"checkbox_events":[],"key_events":[],"mouse_events":[13124.520000070333,16791.925000026822,17874.694999307394],"honeypot":0,"survey":"mace","page":4,"trial_type":"survey-mace","trial_index":12,"time_elapsed":528514,"internal_node_id":"0.0-12.0","task_version":"prescreen-v0.3","browser_interactions":0},{"responses":{"01":"No","02":"No","03":"No","04":"No","05":"No"},"rt":30868.49999986589,"item_order":[0,1,2,3,4],"radio_events":[16689.414999447763,19847.40999992937,23296.259999275208,26639.664999209344,29788.989999331534],"checkbox_events":[],"key_events":[],"mouse_events":[16689.414999447763,19847.40999992937,23296.259999275208,26639.664999209344,29788.989999331534,30864.114999771118],"honeypot":0,"survey":"mace","page":5,"trial_type":"survey-mace","trial_index":13,"time_elapsed":559388,"internal_node_id":"0.0-13.0","task_version":"prescreen-v0.3","browser_interactions":0},{"responses":{"01":"Yes","01_ages_7":"7","01_ages_9":"9","01_ages_10":"10","02":"Yes","02_ages_7":"7","02_ages_9":"9","02_ages_10":"10","02_ages_14":"14","02_ages_15":"15","02_ages_16":"16","03":"Yes","03_ages_14":"14","03_ages_15":"15","03_ages_16":"16","03_ages_17":"17","03_ages_18":"18","04":"No","05":"No"},"rt":93197.22499977797,"item_order":[0,1,2,3,4],"radio_events":[13052.304999902844,35506.45500048995,73267.82499998808,87329.4350001961,91707.08999969065],"checkbox_events":[17114.505000412464,18196.744999848306,19464.73000012338,55427.915000356734,58723.965000361204,59565.02000056207,61325.105000287294,62237.27499973029,67793.2449998334,76902.32000034302,77742.13500041515,78598.57499971986,79567.20499973744,80278.3399997279],"key_events":[],"mouse_events":[13052.304999902844,17114.505000412464,18196.744999848306,19464.73000012338,35506.45500048995,55427.915000356734,58723.965000361204,59565.02000056207,61325.105000287294,62237.27499973029,67793.2449998334,73267.82499998808,76902.32000034302,77742.13500041515,78598.57499971986,79567.20499973744,80278.3399997279,87329.4350001961,91707.08999969065,93193.50000005215],"honeypot":0,"survey":"mace","page":6,"trial_type":"survey-mace","trial_index":14,"time_elapsed":652602,"internal_node_id":"0.0-14.0","task_version":"prescreen-v0.3","browser_interactions":0},{"responses":{"01":"No","02":"No","03":"No","04":"No","05":"No","06":"No","07":"Yes","07_ages_16":"16","07_ages_17":"17","07_ages_18":"18"},"rt":45268.2500006631,"item_order":[0,1,2,3,4,5,6],"radio_events":[7098.939999938011,12307.800000533462,19149.41000007093,21999.93500020355,26385.890000499785,32969.81000062078,36362.815000116825],"checkbox_events":[40004.99999988824,40643.769999966025,41409.85000040382],"key_events":[],"mouse_events":[7098.939999938011,12307.800000533462,19149.41000007093,21999.93500020355,26385.890000499785,32969.81000062078,36362.815000116825,40004.99999988824,40643.769999966025,41409.85000040382,45262.140000239015],"honeypot":0,"survey":"mace","page":7,"trial_type":"survey-mace","trial_index":15,"time_elapsed":697887,"internal_node_id":"0.0-15.0","task_version":"prescreen-v0.3","browser_interactions":0},{"responses":{"01":"No","02":"No","03":"No","04":"No"},"rt":30012.974999845028,"item_order":[0,1,2,3],"radio_events":[12736.774999648333,18642.06999912858,24718.699999153614,29080.124999396503],"checkbox_events":[],"key_events":[],"mouse_events":[12736.774999648333,18642.06999912858,24718.699999153614,29080.124999396503,30009.48999915272],"honeypot":0,"survey":"mace","page":8,"trial_type":"survey-mace","trial_index":16,"time_elapsed":727905,"internal_node_id":"0.0-16.0","task_version":"prescreen-v0.3","browser_interactions":0},{"responses":{"01":"Yes","01_ages_1":"1","01_ages_2":"2","01_ages_3":"3","01_ages_4":"4","01_ages_5":"5","01_ages_6":"6","01_ages_7":"7","01_ages_8":"8","01_ages_9":"9","01_ages_10":"10","01_ages_11":"11","01_ages_12":"12","01_ages_13":"13","01_ages_14":"14","01_ages_15":"15","01_ages_16":"16","01_ages_17":"17","01_ages_18":"18","02":"Yes","02_ages_1":"1","02_ages_2":"2","02_ages_3":"3","02_ages_4":"4","02_ages_5":"5","02_ages_6":"6","02_ages_7":"7","02_ages_8":"8","02_ages_9":"9","02_ages_10":"10","02_ages_11":"11","02_ages_12":"12","02_ages_13":"13","02_ages_14":"14","02_ages_15":"15","02_ages_16":"16","02_ages_17":"17","02_ages_18":"18","03":"Yes","03_ages_1":"1","03_ages_2":"2","03_ages_3":"3","03_ages_4":"4","03_ages_5":"5","03_ages_6":"6","03_ages_7":"7","03_ages_8":"8","03_ages_9":"9","03_ages_10":"10","03_ages_11":"11","03_ages_12":"12","03_ages_13":"13","03_ages_14":"14","03_ages_15":"15","03_ages_16":"16","03_ages_17":"17","03_ages_18":"18","04":"Yes","04_ages_1":"1","04_ages_2":"2","04_ages_3":"3","04_ages_4":"4","04_ages_5":"5","04_ages_6":"6","04_ages_7":"7","04_ages_8":"8","04_ages_9":"9","04_ages_10":"10","04_ages_11":"11","04_ages_12":"12","04_ages_13":"13","04_ages_14":"14","04_ages_15":"15","04_ages_16":"16","04_ages_17":"17","04_ages_18":"18"},"rt":103151.03000029922,"item_order":[0,1,2,3],"radio_events":[7517.300000414252,31461.78000047803,53752.94000003487,79960.74500028044],"checkbox_events":[10853.520000353456,11710.254999808967,12459.599999710917,13292.624999769032,14132.3699997738,15456.764999777079,16217.24500041455,16967.255000025034,17896.244999952614,19131.725000217557,19915.420000441372,20650.200000032783,21506.365000270307,22621.240000240505,24583.92999973148,25237.645000219345,25988.61000034958,26682.44000058621,32810.73500029743,33513.18500004709,34505.82499988377,35167.51000005752,36001.439999789,36921.70500010252,37696.67499978095,38585.014999844134,39385.10499987751,40208.4950003773,41250.57999975979,41968.37500017136,42841.69999975711,43971.830000169575,45780.57000041008,46597.41500020027,47420.34499999136,48389.849999919534,55175.0499997288,55667.755000293255,56320.86000032723,57840.42999986559,58743.935000151396,60561.4900002256,61393.86999979615,62281.13000001758,63114.13000058383,64002.7499999851,65415.8150004223,66016.73999987543,66602.98500023782,68233.76000020653,68953.60000059009,70503.9250003174,71771.87000028789,72490.41500035673,82003.64500004798,82601.60499997437,83885.93500014395,85912.91499976069,87416.51500016451,88230.6049996987,89103.4450000152,90153.46499998122,91703.8550004363,92575.92500001192,94135.50500012934,95014.86499980092,95814.60999976844,97389.46000020951,98246.0749996826,99085.10500006378,99973.93000032753,100652.5100003928],"key_events":[],"mouse_events":[7517.300000414252,10853.520000353456,11710.254999808967,12459.599999710917,13292.624999769032,14132.3699997738,15456.764999777079,16217.24500041455,16967.255000025034,17896.244999952614,19131.725000217557,19915.420000441372,20650.200000032783,21506.365000270307,22621.240000240505,24583.92999973148,25237.645000219345,25988.61000034958,26682.44000058621,31461.78000047803,32810.73500029743,33513.18500004709,34505.82499988377,35167.51000005752,36001.439999789,36921.70500010252,37696.67499978095,38585.014999844134,39385.10499987751,40208.4950003773,41250.57999975979,41968.37500017136,42841.69999975711,43971.830000169575,44852.49499976635,45780.57000041008,46597.41500020027,47420.34499999136,48389.849999919534,53752.94000003487,55175.0499997288,55667.755000293255,56320.86000032723,57840.42999986559,58743.935000151396,60561.4900002256,61393.86999979615,62281.13000001758,63114.13000058383,64002.7499999851,65415.8150004223,66016.73999987543,66602.98500023782,68233.76000020653,68953.60000059009,70503.9250003174,71771.87000028789,72490.41500035673,79960.74500028044,82003.64500004798,82601.60499997437,83885.93500014395,85912.91499976069,87416.51500016451,88230.6049996987,89103.4450000152,90153.46499998122,91703.8550004363,92575.92500001192,94135.50500012934,95014.86499980092,95814.60999976844,97389.46000020951,98246.0749996826,99085.10500006378,99973.93000032753,100652.5100003928,103147.74500019848],"honeypot":0,"survey":"mace","page":9,"trial_type":"survey-mace","trial_index":17,"time_elapsed":831059,"internal_node_id":"0.0-17.0","task_version":"prescreen-v0.3","browser_interactions":0},{"responses":{"01":"No","02":"No","03":"No","04":"No","05":"No","06":"Yes","06_ages_17":"17","07":"Yes","07_ages_1":"1","07_ages_2":"2","07_ages_3":"3","07_ages_4":"4","07_ages_5":"5","07_ages_6":"6","07_ages_7":"7","07_ages_8":"8","07_ages_9":"9","07_ages_10":"10","07_ages_11":"11","07_ages_12":"12","07_ages_13":"13","07_ages_14":"14","07_ages_15":"15","07_ages_16":"16","07_ages_17":"17","07_ages_18":"18","08":"Yes","08_ages_1":"1","08_ages_2":"2","08_ages_3":"3","08_ages_4":"4","08_ages_5":"5","08_ages_6":"6","08_ages_7":"7","08_ages_8":"8","08_ages_9":"9","08_ages_10":"10","08_ages_11":"11","08_ages_12":"12","08_ages_13":"13","08_ages_14":"14","08_ages_15":"15","08_ages_16":"16","08_ages_17":"17","08_ages_18":"18"},"rt":73468.82500033826,"item_order":[0,1,2,3,4,5,6,7],"radio_events":[5475.384999997914,7066.619999706745,9554.109999909997,12170.764999464154,15400.859999470413,18259.35999955982,24575.0799998641,53164.83999975026],"checkbox_events":[20271.054999902844,30334.130000323057,31730.8999998495,33297.95499984175,34880.69999963045,35663.394999690354,36455.26499953121,37197.66999967396,38118.62500011921,38860.71499995887,39677.810000255704,40533.20499975234,41389.11500014365,42189.21499978751,42964.03499972075,43900.905000045896,44636.739999987185,45427.29999963194,46163.054999895394,54296.249999664724,54779.68499995768,56202.19499990344,56783.505000174046,58406.87000006437,59238.64500038326,60037.92000003159,61588.239999487996,62461.66499983519,63244.93999965489,64035.445000045,65078.1199997291,65796.77999950945,67388.10999970883,68906.27499949187,69592.63999946415,70270.6699995324,71717.40499977022],"key_events":[],"mouse_events":[5475.384999997914,7066.619999706745,9554.109999909997,12170.764999464154,15400.859999470413,18259.35999955982,20271.054999902844,24575.0799998641,30334.130000323057,31730.8999998495,32529.904999770224,33297.95499984175,34880.69999963045,35663.394999690354,36455.26499953121,37197.66999967396,38118.62500011921,38860.71499995887,39677.810000255704,40533.20499975234,41389.11500014365,42189.21499978751,42964.03499972075,43900.905000045896,44636.739999987185,45427.29999963194,46163.054999895394,53164.83999975026,54296.249999664724,54779.68499995768,56202.19499990344,56783.505000174046,58406.87000006437,59238.64500038326,60037.92000003159,61588.239999487996,62461.66499983519,63244.93999965489,64035.445000045,65078.1199997291,65796.77999950945,67388.10999970883,68107.23999980837,68906.27499949187,69592.63999946415,70270.6699995324,71717.40499977022,73462.05000020564],"honeypot":0,"survey":"mace","page":10,"trial_type":"survey-mace","trial_index":18,"time_elapsed":904534,"internal_node_id":"0.0-18.0","task_version":"prescreen-v0.3","browser_interactions":0,"instructed":0},{"rt":11632.255000062287,"trial_type":"mental-health-alert","trial_index":19,"time_elapsed":916168,"internal_node_id":"0.0-19.0","task_version":"prescreen-v0.3","interactions":"[]"}]