[{"view_history":[{"page_index":0,"viewing_time":3450.599999964237},{"page_index":1,"viewing_time":6826.400000035763},{"page_index":2,"viewing_time":3688.2999999523163},{"page_index":3,"viewing_time":1248.5}],"rt":15216.199999988079,"trial_type":"instructions","trial_index":0,"time_elapsed":15271,"internal_node_id":"0.0-0.0","task_version":"prescreen-v0.3"},{"rt":20454.69999998808,"responses":{"age":"27","gender-categorical":"Male","gender-free-response":"","ethnicity":"Hispanic or Latino","race":["White"],"education":"High school","siblings":"0"},"trial_type":"survey-demo","trial_index":1,"time_elapsed":35748,"internal_node_id":"0.0-1.0","task_version":"prescreen-v0.3"},{"responses":{"Q06":"2","Q19":"3","Q08":"3","Q03":"2","Q14":"3","Q12":"2","Q18":"1","Q20":"0","Q16":"3","Q05":"1","Q02":"2","Q04":"1","Q21":"3","Q10":"2","Q07":"0","Q09":"3","Q13":"2","Q15":"3","Q17":"2","Q01":"3","Q11":"3"},"rt":95765.30000001192,"item_order":[5,18,7,2,13,11,17,19,15,4,1,3,20,9,6,8,12,14,16,0,10],"radio_events":[10166.400000035763,14867,20544.19999998808,23228.30000001192,28370.19999998808,32235.19999998808,33342.80000001192,43395.69999998808,46124.90000003576,49611,54081.5,60964.30000001192,63786,68453.80000001192,73678.90000003576,78590.19999998808,82155.69999998808,84136.69999998808,88106.80000001192,91806.5,94173.69999998808,95254.69999998808],"key_events":[],"mouse_events":[8891.400000035763,10166.400000035763,14867,19822.600000023842,20544.19999998808,23228.30000001192,28370.19999998808,31665.69999998808,32235.19999998808,33342.80000001192,43395.69999998808,46124.90000003576,49611,54081.5,58825.5,59721.80000001192,60109.60000002384,60541.30000001192,60964.30000001192,63786,68453.80000001192,73678.90000003576,78590.19999998808,82155.69999998808,84136.69999998808,88106.80000001192,91806.5,94173.69999998808,95254.69999998808,95753.90000003576],"straightlining":0.42857142857142855,"zigzagging":0.75,"honeypot":0,"survey":"sns","trial_type":"survey-template","trial_index":2,"time_elapsed":131544,"internal_node_id":"0.0-2.0","task_version":"prescreen-v0.3","browser_interactions":0,"infrequency":0},{"responses":{"Q09":"2","Q03":"3","Q10":"2","Q01":"3","Q06":"3","Q04":"3","Q08":"1","Q12":"2","Q13":"0","Q11":"2","Q05":"3","Q02":"3","Q07":"3"},"rt":53868.60000002384,"item_order":[8,2,9,0,5,3,7,11,12,10,4,1,6],"radio_events":[4051,13138.600000023842,15741.5,19019.700000047684,23551.80000001192,27271.100000023842,31581.900000035763,36337.200000047684,38046,44870,48886.10000002384,51423.60000002384,53292.30000001192],"key_events":[],"mouse_events":[4051,11876,12359.700000047684,13138.600000023842,15741.5,19019.700000047684,23057.100000023842,23551.80000001192,27271.100000023842,30937.5,31581.900000035763,36337.200000047684,38046,44870,48886.10000002384,50938,51423.60000002384,53292.30000001192,53862.10000002384],"straightlining":0.5384615384615384,"zigzagging":0.4166666666666667,"honeypot":0,"survey":"bisbas","trial_type":"survey-template","trial_index":3,"time_elapsed":185426,"internal_node_id":"0.0-3.0","task_version":"prescreen-v0.3","browser_interactions":0,"infrequency":0},{"responses":{"Q01":"1","Q02":"2","Q03":"2"},"rt":28301.100000023842,"radio_events":[7309.300000011921,17301.400000035763,22816.700000047684,27558.100000023842],"key_events":[],"mouse_events":[7309.300000011921,17301.400000035763,22816.700000047684,27558.100000023842,28297.900000035763],"survey":"map","page":1,"trial_type":"survey-map","trial_index":4,"time_elapsed":213740,"internal_node_id":"0.0-4.0","task_version":"prescreen-v0.3","browser_interactions":0},{"responses":{"Q04":"3","Q05":"2","Q06":"3"},"rt":20429.599999964237,"radio_events":[4332.299999952316,11225.899999976158,16369.299999952316,17668.299999952316,19896.799999952316],"key_events":[],"mouse_events":[4332.299999952316,11225.899999976158,16369.299999952316,17668.299999952316,19192.799999952316,19896.799999952316,20426.799999952316],"survey":"map","page":2,"trial_type":"survey-map","trial_index":5,"time_elapsed":234179,"internal_node_id":"0.0-5.0","task_version":"prescreen-v0.3","browser_interactions":0},{"responses":{"Q07":"2","Q08":"4","Q09":"3"},"rt":24663.899999976158,"radio_events":[12336.800000011921,19353.19999998808,23830.099999964237],"key_events":[],"mouse_events":[12336.800000011921,18677.599999964237,19006.30000001192,19353.19999998808,23830.099999964237,24662.099999964237],"survey":"map","page":3,"trial_type":"survey-map","trial_index":6,"time_elapsed":258847,"internal_node_id":"0.0-6.0","task_version":"prescreen-v0.3","browser_interactions":0},{"responses":{"Q10":"1","Q11":"3","Q12":"0","Q13":"3","Q16":"0","Q14":"3","Q15":"2"},"rt":39357,"radio_events":[6252.199999988079,10530.5,19121.19999998808,26362.799999952316,27240.5,30546.69999998808,35299.5,38607.299999952316],"key_events":[],"mouse_events":[6252.199999988079,10124.199999988079,10530.5,18608.399999976158,19121.19999998808,25812.599999964237,26362.799999952316,27240.5,30546.69999998808,34924.59999996424,35299.5,38223.799999952316,38607.299999952316,39351.39999997616],"survey":"map","page":4,"trial_type":"survey-map","trial_index":7,"time_elapsed":298214,"internal_node_id":"0.0-7.0","task_version":"prescreen-v0.3","browser_interactions":0,"infrequency":0},{"view_history":[{"page_index":0,"viewing_time":2637.400000035763},{"page_index":1,"viewing_time":5760.5}],"rt":8401.100000023842,"trial_type":"instructions","trial_index":8,"time_elapsed":306620,"internal_node_id":"0.0-8.0","task_version":"prescreen-v0.3"},{"responses":{"01":"Yes","01_ages_9":"9","01_ages_10":"10","02":"No","02_ages_12":"12","02_ages_13":"13","02_ages_14":"14","02_ages_15":"15","02_ages_16":"16","02_ages_17":"17","03":"Yes","03_ages_8":"8","03_ages_9":"9","04":"No","05":"No","06":"No"},"rt":69654.40000003576,"item_order":[0,1,2,3,4,5],"radio_events":[9747.600000023842,27455.5,39860.80000001192,40982.10000002384,46340.200000047684,57896.40000003576,62671,64120.60000002384,68600.5],"checkbox_events":[19426.30000001192,20055.200000047684,21526.5,29735.400000035763,30175.5,30675.900000035763,31106,31616.80000001192,32077.80000001192,47676.700000047684,48085.700000047684,48562.40000003576,49332,49753.80000001192,58624.200000047684,59798.40000003576],"key_events":[],"mouse_events":[0.30000001192092896,9747.600000023842,19426.30000001192,20055.200000047684,20629.30000001192,21526.5,27455.5,29735.400000035763,30175.5,30675.900000035763,31106,31616.80000001192,32077.80000001192,39860.80000001192,40982.10000002384,46340.200000047684,47676.700000047684,48085.700000047684,48562.40000003576,49332,49753.80000001192,57896.40000003576,58624.200000047684,59096.40000003576,59798.40000003576,62671,64120.60000002384,68600.5,69204.70000004768,69639],"honeypot":0,"survey":"mace","page":1,"trial_type":"survey-mace","trial_index":9,"time_elapsed":376311,"internal_node_id":"0.0-9.0","task_version":"prescreen-v0.3","browser_interactions":0},{"responses":{"01":"No","02":"No","03":"Yes","03_ages_7":"7","03_ages_8":"8","03_ages_9":"9","03_ages_10":"10","03_ages_11":"11","04":"No","05":"No","06":"No","07":"No","08":"No"},"rt":30605.5,"item_order":[0,1,2,3,4,5,6,7],"radio_events":[8372.899999976158,9898.899999976158,11119.599999964237,22698.599999964237,25944.899999976158,27477,29006.80000001192,30022.80000001192],"checkbox_events":[12696.5,13054.5,13904.199999988079,14288.599999964237,15090.5],"key_events":[],"mouse_events":[8372.899999976158,9898.899999976158,11119.599999964237,12696.5,13054.5,13462.399999976158,13904.199999988079,14288.599999964237,14642.399999976158,15090.5,22698.599999964237,25944.899999976158,27477,29006.80000001192,30022.80000001192,30584.599999964237],"honeypot":0,"survey":"mace","page":2,"trial_type":"survey-mace","trial_index":10,"time_elapsed":406938,"internal_node_id":"0.0-10.0","task_version":"prescreen-v0.3","browser_interactions":0},{"responses":{"01":"No","02":"No","03":"No","04":"No"},"rt":6991.600000023842,"item_order":[0,1,2,3],"radio_events":[3172.800000011921,4170.800000011921,5419.199999988079,6198.699999988079],"checkbox_events":[],"key_events":[],"mouse_events":[3172.800000011921,4170.800000011921,5419.199999988079,6198.699999988079,6981.100000023842],"honeypot":0,"survey":"mace","page":3,"trial_type":"survey-mace","trial_index":11,"time_elapsed":413940,"internal_node_id":"0.0-11.0","task_version":"prescreen-v0.3","browser_interactions":0},{"responses":{"01":"No","02":"No"},"rt":6619.5,"item_order":[0,1],"radio_events":[5271.399999976158,6104],"checkbox_events":[],"key_events":[],"mouse_events":[5271.399999976158,6104,6614.099999964237],"honeypot":0,"survey":"mace","page":4,"trial_type":"survey-mace","trial_index":12,"time_elapsed":420569,"internal_node_id":"0.0-12.0","task_version":"prescreen-v0.3","browser_interactions":0},{"responses":{"01":"Yes","01_ages_7":"7","01_ages_8":"8","02":"No","03":"No","04":"Yes","04_ages_9":"9","04_ages_10":"10","05":"No"},"rt":32338.30000001192,"item_order":[0,1,2,3,4],"radio_events":[10244.199999988079,17135,22973,26180.400000035763,31762.80000001192],"checkbox_events":[12236.400000035763,13123.300000011921,27818.80000001192,28222.80000001192],"key_events":[],"mouse_events":[10244.199999988079,12236.400000035763,12656.199999988079,13123.300000011921,17135,22973,26180.400000035763,27818.80000001192,28222.80000001192,31762.80000001192,32325.69999998808],"honeypot":0,"survey":"mace","page":5,"trial_type":"survey-mace","trial_index":13,"time_elapsed":452924,"internal_node_id":"0.0-13.0","task_version":"prescreen-v0.3","browser_interactions":0},{"responses":{"01":"Yes","01_ages_9":"9","01_ages_10":"10","01_ages_11":"11","01_ages_12":"12","02":"Yes","02_ages_8":"8","02_ages_9":"9","02_ages_10":"10","02_ages_11":"11","02_ages_12":"12","02_ages_13":"13","03":"Yes","03_ages_12":"12","03_ages_13":"13","03_ages_14":"14","03_ages_15":"15","03_ages_16":"16","04":"Yes","04_ages_16":"16","04_ages_17":"17","05":"Yes","05_ages_12":"12","05_ages_13":"13"},"rt":40231.5,"item_order":[0,1,2,3,4],"radio_events":[4611,10271.399999976158,19939.69999998808,31342.19999998808,35846],"checkbox_events":[5913,6785.699999988079,7180.399999976158,7630.100000023842,12677.600000023842,13677.800000011921,14179.800000011921,14629.699999988079,15181.899999976158,17403.600000023842,21725.19999998808,22116.600000023842,22898.30000001192,23233.5,23590.100000023842,23978,26707.80000001192,32922.5,33294.39999997616,38678.80000001192,39507.89999997616],"key_events":[],"mouse_events":[4611,5913,6431,6785.699999988079,7180.399999976158,7630.100000023842,10271.399999976158,12677.600000023842,13224.300000011921,13677.800000011921,14179.800000011921,14629.699999988079,15181.899999976158,15829.699999988079,17403.600000023842,19939.69999998808,21725.19999998808,22116.600000023842,22443.30000001192,22898.30000001192,23233.5,23590.100000023842,23978,26707.80000001192,31342.19999998808,32922.5,33294.39999997616,35846,38678.80000001192,39064.80000001192,39507.89999997616,40219.10000002384],"honeypot":0,"survey":"mace","page":6,"trial_type":"survey-mace","trial_index":14,"time_elapsed":493171,"internal_node_id":"0.0-14.0","task_version":"prescreen-v0.3","browser_interactions":0},{"responses":{"01":"No","02":"Yes","02_ages_16":"16","03":"Yes","03_ages_12":"12","03_ages_13":"13","03_ages_14":"14","04":"Yes","04_ages_12":"12","05":"No","06":"No","07":"No"},"rt":31187.600000023842,"item_order":[0,1,2,3,4,5,6],"radio_events":[7575.200000047684,11660.300000011921,12789.200000047684,18146.200000047684,23371,27661.900000035763,30076,30549.700000047684],"checkbox_events":[14318.100000023842,19667.700000047684,20767.30000001192,21224.200000047684,24521.900000035763],"key_events":[],"mouse_events":[7575.200000047684,11660.300000011921,12789.200000047684,14318.100000023842,18146.200000047684,19667.700000047684,20043.30000001192,20767.30000001192,21224.200000047684,23371,24521.900000035763,27661.900000035763,29132,30076,30549.700000047684,31169],"honeypot":0,"survey":"mace","page":7,"trial_type":"survey-mace","trial_index":15,"time_elapsed":524373,"internal_node_id":"0.0-15.0","task_version":"prescreen-v0.3","browser_interactions":0},{"responses":{"01":"No","02":"Yes","02_ages_12":"12","02_ages_13":"13","02_ages_14":"14","02_ages_15":"15","02_ages_16":"16","02_ages_17":"17","02_ages_18":"18","03":"No","04":"No"},"rt":30834.80000001192,"item_order":[0,1,2,3],"radio_events":[9406.600000023842,11808.5,25545.100000023842,30313.5],"checkbox_events":[18307.100000023842,18701.100000023842,19104.400000035763,20007,20393,20833,21357.19999998808],"key_events":[],"mouse_events":[9406.600000023842,11808.5,18307.100000023842,18701.100000023842,19104.400000035763,19480.30000001192,20007,20393,20833,21357.19999998808,25545.100000023842,30313.5,30823.600000023842],"honeypot":0,"survey":"mace","page":8,"trial_type":"survey-mace","trial_index":16,"time_elapsed":555219,"internal_node_id":"0.0-16.0","task_version":"prescreen-v0.3","browser_interactions":0},{"responses":{"01":"Yes","01_ages_1":"1","01_ages_2":"2","01_ages_3":"3","01_ages_4":"4","01_ages_5":"5","01_ages_6":"6","01_ages_7":"7","01_ages_8":"8","01_ages_9":"9","01_ages_10":"10","01_ages_11":"11","01_ages_12":"12","01_ages_13":"13","02":"Yes","02_ages_13":"13","02_ages_14":"14","02_ages_15":"15","02_ages_16":"16","02_ages_17":"17","02_ages_18":"18","03":"Yes","03_ages_1":"1","03_ages_2":"2","03_ages_3":"3","03_ages_4":"4","03_ages_5":"5","03_ages_6":"6","03_ages_7":"7","03_ages_8":"8","03_ages_9":"9","03_ages_10":"10","03_ages_11":"11","03_ages_12":"12","03_ages_13":"13","03_ages_14":"14","03_ages_15":"15","04":"Yes","04_ages_1":"1","04_ages_2":"2","04_ages_3":"3","04_ages_4":"4","04_ages_5":"5","04_ages_6":"6","04_ages_7":"7","04_ages_8":"8","04_ages_9":"9","04_ages_10":"10","04_ages_11":"11","04_ages_12":"12","04_ages_13":"13","04_ages_14":"14","04_ages_15":"15","04_ages_16":"16","04_ages_17":"17","04_ages_18":"18"},"rt":62376.200000047684,"item_order":[0,1,2,3],"radio_events":[6435.600000023842,26246.200000047684,34957.200000047684,51795.30000001192],"checkbox_events":[7756.100000023842,8709.900000035763,9450,10042.400000035763,10412.200000047684,10802.700000047684,11200.400000035763,11619.600000023842,12313.600000023842,12956.300000011921,13528.200000047684,14034.100000023842,14641.100000023842,28708.700000047684,29154.200000047684,29530.400000035763,30216.600000023842,30575.700000047684,31228.80000001192,38316.700000047684,38844.90000003576,39768.200000047684,40447,41402.40000003576,41823.30000001192,42239.700000047684,43140.90000003576,43527.200000047684,43935,44347.200000047684,44807.40000003576,45226.40000003576,45763.10000002384,46284.700000047684,53278.10000002384,53660.80000001192,54017.30000001192,54556.60000002384,54909.10000002384,55419.60000002384,56127,56477.10000002384,57045.10000002384,57465.40000003576,57927.5,58729.30000001192,59147.40000003576,59547.10000002384,59975.60000002384,60494.40000003576,61031.200000047684,61541.200000047684],"key_events":[],"mouse_events":[6435.600000023842,7756.100000023842,8327.800000011921,8709.900000035763,9144,9450,10042.400000035763,10412.200000047684,10802.700000047684,11200.400000035763,11619.600000023842,12313.600000023842,12956.300000011921,13528.200000047684,14034.100000023842,14641.100000023842,26246.200000047684,28708.700000047684,29154.200000047684,29530.400000035763,30216.600000023842,30575.700000047684,31228.80000001192,34957.200000047684,38316.700000047684,38844.90000003576,39170.60000002384,39768.200000047684,40161.40000003576,40447,41054.60000002384,41402.40000003576,41823.30000001192,42239.700000047684,42618.10000002384,43140.90000003576,43527.200000047684,43935,44347.200000047684,44807.40000003576,45226.40000003576,45763.10000002384,46284.700000047684,51320.90000003576,51795.30000001192,53278.10000002384,53660.80000001192,54017.30000001192,54556.60000002384,54909.10000002384,55419.60000002384,55769.5,56127,56477.10000002384,57045.10000002384,57465.40000003576,57927.5,58729.30000001192,59147.40000003576,59547.10000002384,59975.60000002384,60494.40000003576,61031.200000047684,61541.200000047684,62366.40000003576],"honeypot":0,"survey":"mace","page":9,"trial_type":"survey-mace","trial_index":17,"time_elapsed":617611,"internal_node_id":"0.0-17.0","task_version":"prescreen-v0.3","browser_interactions":0},{"responses":{"01":"No","02":"No","03":"Yes","03_ages_16":"16","03_ages_17":"17","03_ages_18":"18","04":"Yes","04_ages_9":"9","04_ages_10":"10","04_ages_11":"11","04_ages_12":"12","04_ages_13":"13","04_ages_14":"14","04_ages_15":"15","05":"No","06":"Yes","06_ages_17":"17","07":"Yes","07_ages_1":"1","07_ages_2":"2","07_ages_3":"3","07_ages_4":"4","07_ages_5":"5","07_ages_6":"6","07_ages_7":"7","07_ages_8":"8","07_ages_9":"9","07_ages_10":"10","07_ages_11":"11","07_ages_12":"12","07_ages_13":"13","07_ages_14":"14","07_ages_15":"15","08":"Yes","08_ages_12":"12","08_ages_13":"13","08_ages_14":"14","08_ages_15":"15","08_ages_16":"16","08_ages_17":"17","08_ages_18":"18"},"rt":51703.40000003576,"item_order":[0,1,2,3,4,5,6,7],"radio_events":[4177.400000035763,5351.600000023842,9081,13825.5,25030.400000035763,26534.19999998808,33694.19999998808,46552.40000003576],"checkbox_events":[10558.400000035763,10947.400000035763,11362.199999988079,15656.400000035763,16009.800000011921,16399.5,16731.69999998808,17339.100000023842,19746.69999998808,20134.69999998808,27790.19999998808,37494.30000001192,37913.90000003576,38328.30000001192,38796,39138.60000002384,39671.69999998808,40150.19999998808,40534.90000003576,41080,41433,41852.5,42284.40000003576,42783.80000001192,43577.80000001192,44634.40000003576,47770.10000002384,48176.60000002384,48659,49090.80000001192,50206.80000001192,50647.60000002384,51018.69999998808],"key_events":[],"mouse_events":[4177.400000035763,5351.600000023842,9081,10558.400000035763,10947.400000035763,11362.199999988079,13825.5,15656.400000035763,16009.800000011921,16399.5,16731.69999998808,17339.100000023842,17940.900000035763,19746.69999998808,20134.69999998808,25030.400000035763,26534.19999998808,27790.19999998808,33694.19999998808,37494.30000001192,37913.90000003576,38328.30000001192,38796,39138.60000002384,39671.69999998808,40150.19999998808,40534.90000003576,41080,41433,41852.5,42284.40000003576,42783.80000001192,43168.60000002384,43577.80000001192,43990.60000002384,44634.40000003576,46552.40000003576,47770.10000002384,48176.60000002384,48659,49090.80000001192,49649.10000002384,50206.80000001192,50647.60000002384,51018.69999998808,51683.40000003576],"honeypot":0,"survey":"mace","page":10,"trial_type":"survey-mace","trial_index":18,"time_elapsed":669338,"internal_node_id":"0.0-18.0","task_version":"prescreen-v0.3","browser_interactions":0,"instructed":0},{"rt":4770.600000023842,"trial_type":"mental-health-alert","trial_index":19,"time_elapsed":674116,"internal_node_id":"0.0-19.0","task_version":"prescreen-v0.3","interactions":"[]"}]