[{"view_history":[{"page_index":0,"viewing_time":3869.3000000715256},{"page_index":1,"viewing_time":5455.899999976158},{"page_index":2,"viewing_time":3511.899999976158},{"page_index":3,"viewing_time":1127.8999999761581}],"rt":13967.600000023842,"trial_type":"instructions","trial_index":0,"time_elapsed":13975,"internal_node_id":"0.0-0.0","task_version":"prescreen-v0.3"},{"rt":38567.799999952316,"responses":{"age":"29","gender-categorical":"Male","gender-free-response":"","ethnicity":"Not Hispanic or Latino","race":["Asian"],"education":"Bachelor degree"},"trial_type":"survey-demo","trial_index":1,"time_elapsed":52549,"internal_node_id":"0.0-1.0","task_version":"prescreen-v0.3"},{"responses":{"Q12":"0","Q03":"0","Q05":"1","Q02":"0","Q20":"0","Q08":"2","Q13":"1","Q10":"2","Q06":"1","Q04":"0","Q09":"1","Q01":"0","Q16":"0","Q14":"1","Q11":"1","Q19":"0","Q21":"3","Q15":"1","Q17":"0","Q07":"1","Q18":"0"},"rt":131076.59999990463,"item_order":[11,2,4,1,19,7,12,9,5,3,8,0,15,13,10,18,20,14,16,6,17],"radio_events":[10218.099999904633,15673.899999976158,27482.099999904633,30498,33762.199999928474,38361.89999997616,40330.199999928474,45306.199999928474,47962.199999928474,59353.89999997616,65450.09999990463,67594.09999990463,74153.79999995232,78394.09999990463,83281.69999992847,88378.09999990463,91450,98450.19999992847,100178.09999990463,104057.69999992847,114066.09999990463,122385.89999997616,129210.19999992847],"key_events":[],"mouse_events":[10218.099999904633,15673.899999976158,27482.099999904633,30498,33762.199999928474,38361.89999997616,40330.199999928474,45306.199999928474,47962.199999928474,53746.199999928474,59353.89999997616,65450.09999990463,67594.09999990463,73162,74153.79999995232,78394.09999990463,82545.89999997616,83281.69999992847,88378.09999990463,90882.19999992847,91450,98450.19999992847,100178.09999990463,103002,104057.69999992847,114066.09999990463,121714.29999995232,122385.89999997616,123074,128770.29999995232,129210.19999992847,131074.19999992847],"straightlining":0.47619047619047616,"zigzagging":0.7,"honeypot":0,"survey":"sns","trial_type":"survey-template","trial_index":2,"time_elapsed":183570,"internal_node_id":"0.0-2.0","task_version":"prescreen-v0.3","browser_interactions":0,"infrequency":0},{"responses":{"Q09":"2","Q10":"3","Q13":"0","Q07":"2","Q08":"2","Q02":"0","Q11":"2","Q12":"2","Q03":"2","Q06":"3","Q04":"2","Q01":"2","Q05":"2"},"rt":79162.10000002384,"item_order":[8,9,12,6,7,1,10,11,2,5,3,0,4],"radio_events":[13649.100000023842,20416.899999976158,27288.899999976158,28896.799999952316,31752.899999976158,36040.799999952316,37241,41537,43969,48833.200000047684,49560.89999997616,57857,62976.60000002384,64489.200000047684,67768.89999997616,70584.79999995232,73912.89999997616,77344.89999997616],"key_events":[],"mouse_events":[13649.100000023842,16417,18416.899999976158,18872.799999952316,19961,20416.899999976158,27288.899999976158,28896.799999952316,30704.799999952316,31752.899999976158,36040.799999952316,37241,41537,43969,47185,48080.89999997616,48833.200000047684,49560.89999997616,57857,62976.60000002384,64489.200000047684,67768.89999997616,70584.79999995232,73520.60000002384,73912.89999997616,77344.89999997616,79160.79999995232],"straightlining":0.6923076923076923,"zigzagging":0.3333333333333333,"honeypot":0,"survey":"bisbas","trial_type":"survey-template","trial_index":3,"time_elapsed":262716,"internal_node_id":"0.0-3.0","task_version":"prescreen-v0.3","browser_interactions":0,"infrequency":0},{"responses":{"Q01":"3","Q02":"2","Q03":"2"},"rt":17307.199999928474,"radio_events":[4442.899999976158,9554.699999928474,15626.5],"key_events":[],"mouse_events":[4442.899999976158,9074.799999952316,9554.699999928474,15626.5,17306.599999904633],"survey":"map","page":1,"trial_type":"survey-map","trial_index":4,"time_elapsed":280027,"internal_node_id":"0.0-4.0","task_version":"prescreen-v0.3","browser_interactions":0},{"responses":{"Q04":"2","Q05":"2","Q06":"2"},"rt":21157.100000023842,"radio_events":[8220.5,15148.5,19964.399999976158],"key_events":[],"mouse_events":[8220.5,15148.5,16412.600000023842,19964.399999976158,21156.5],"survey":"map","page":2,"trial_type":"survey-map","trial_index":5,"time_elapsed":301167,"internal_node_id":"0.0-5.0","task_version":"prescreen-v0.3","browser_interactions":0},{"responses":{"Q07":"4","Q08":"4","Q09":"3"},"rt":21549.799999952316,"radio_events":[8900.899999976158,14029,17981],"key_events":[],"mouse_events":[8517.5,8900.899999976158,13637,14029,17981,21548.899999976158],"survey":"map","page":3,"trial_type":"survey-map","trial_index":6,"time_elapsed":322719,"internal_node_id":"0.0-6.0","task_version":"prescreen-v0.3","browser_interactions":0},{"responses":{"Q10":"2","Q11":"2","Q12":"2","Q13":"2","Q16":"0","Q14":"2","Q15":"2"},"rt":47510,"radio_events":[5108.799999952316,8876.699999928474,16404.799999952316,27956.799999952316,35916.799999952316,42908.799999952316,46788.699999928474],"key_events":[],"mouse_events":[5108.799999952316,8876.699999928474,16404.799999952316,17853.199999928474,27956.799999952316,35916.799999952316,42908.799999952316,46788.699999928474,47508.89999997616],"survey":"map","page":4,"trial_type":"survey-map","trial_index":7,"time_elapsed":370211,"internal_node_id":"0.0-7.0","task_version":"prescreen-v0.3","browser_interactions":0,"infrequency":0},{"view_history":[{"page_index":0,"viewing_time":3188.5},{"page_index":1,"viewing_time":5111.699999928474}],"rt":8301.199999928474,"trial_type":"instructions","trial_index":8,"time_elapsed":378514,"internal_node_id":"0.0-8.0","task_version":"prescreen-v0.3"},{"responses":{"01":"Yes","01_ages_11":"11","01_ages_12":"12","01_ages_13":"13","01_ages_14":"14","01_ages_15":"15","01_ages_16":"16","01_ages_17":"17","02":"Yes","02_ages_11":"11","02_ages_12":"12","02_ages_13":"13","02_ages_14":"14","02_ages_15":"15","02_ages_16":"16","02_ages_17":"17","03":"No","04":"No","05":"No","06":"No"},"rt":84274.79999995232,"item_order":[0,1,2,3,4,5],"radio_events":[10207.399999976158,34519.199999928474,70863.19999992847,72399,75319.29999995232,78183],"checkbox_events":[23879.600000023842,24471.199999928474,25087.199999928474,25559.299999952316,26039.799999952316,26630.799999952316,28710.899999976158,29343.199999928474,36535.299999952316,44487.299999952316,44863.199999928474,45487.10000002384,46343.199999928474,46903.10000002384,50199.199999928474,51023.299999952316,54095.299999952316,54903.299999952316,55799.10000002384,59575.10000002384,62287.299999952316,62743.199999928474,64935.10000002384,65671.29999995232,66247,66791.60000002384,67271.19999992847,67727.19999992847],"key_events":[],"mouse_events":[2.6999999284744263,10207.399999976158,23879.600000023842,24471.199999928474,25087.199999928474,25559.299999952316,26039.799999952316,26630.799999952316,27766.5,28710.899999976158,29063.799999952316,29343.199999928474,29719.199999928474,34519.199999928474,36535.299999952316,44487.299999952316,44863.199999928474,45487.10000002384,45943.299999952316,46343.199999928474,46903.10000002384,49751.199999928474,50199.199999928474,51023.299999952316,54095.299999952316,54903.299999952316,55799.10000002384,59575.10000002384,62287.299999952316,62743.199999928474,63247.60000002384,64343,64935.10000002384,65671.29999995232,66247,66791.60000002384,67271.19999992847,67727.19999992847,70863.19999992847,72399,75319.29999995232,78183,84271.5],"honeypot":0,"survey":"mace","page":1,"trial_type":"survey-mace","trial_index":9,"time_elapsed":462779,"internal_node_id":"0.0-9.0","task_version":"prescreen-v0.3","browser_interactions":0},{"responses":{"01":"No","02":"No","03":"No","04":"No","05":"No","06":"No","07":"No","08":"No"},"rt":26819.5,"item_order":[0,1,2,3,4,5,6,7],"radio_events":[5591.700000047684,6775.5,7895.600000023842,10175.600000023842,12583.600000023842,13247.5,22927.5,25023.600000023842],"checkbox_events":[],"key_events":[],"mouse_events":[3591.3000000715256,5591.700000047684,6255.5,6775.5,7895.600000023842,10175.600000023842,12583.600000023842,13247.5,22927.5,25023.600000023842,26815.400000095367],"honeypot":0,"survey":"mace","page":2,"trial_type":"survey-mace","trial_index":10,"time_elapsed":489584,"internal_node_id":"0.0-10.0","task_version":"prescreen-v0.3","browser_interactions":0},{"responses":{"01":"No","02":"No","03":"No","04":"No"},"rt":12802.399999976158,"item_order":[0,1,2,3],"radio_events":[5072.199999928474,7624,10183.799999952316,12152.299999952316],"checkbox_events":[],"key_events":[],"mouse_events":[5072.199999928474,7624,10183.799999952316,12152.299999952316,12800.199999928474],"honeypot":0,"survey":"mace","page":3,"trial_type":"survey-mace","trial_index":11,"time_elapsed":502390,"internal_node_id":"0.0-11.0","task_version":"prescreen-v0.3","browser_interactions":0},{"responses":{"01":"No","02":"No"},"rt":18691.899999976158,"item_order":[0,1],"radio_events":[13123.100000023842,17250.800000071526],"checkbox_events":[],"key_events":[],"mouse_events":[13123.100000023842,17250.800000071526,18690.800000071526],"honeypot":0,"survey":"mace","page":4,"trial_type":"survey-mace","trial_index":12,"time_elapsed":521084,"internal_node_id":"0.0-12.0","task_version":"prescreen-v0.3","browser_interactions":0},{"responses":{"01":"No","02":"No","03":"No","04":"No","05":"No"},"rt":15510,"item_order":[0,1,2,3,4],"radio_events":[3691.8000000715256,6491.5,10499.5,11379.300000071526,12771.5],"checkbox_events":[],"key_events":[],"mouse_events":[3691.8000000715256,6491.5,10211.5,10499.5,11379.300000071526,12771.5,15507.5],"honeypot":0,"survey":"mace","page":5,"trial_type":"survey-mace","trial_index":13,"time_elapsed":536599,"internal_node_id":"0.0-13.0","task_version":"prescreen-v0.3","browser_interactions":0},{"responses":{"01":"Yes","01_ages_7":"7","01_ages_8":"8","01_ages_9":"9","01_ages_10":"10","01_ages_11":"11","02":"Yes","02_ages_7":"7","02_ages_8":"8","02_ages_9":"9","02_ages_10":"10","02_ages_11":"11","03":"No","04":"No","05":"No"},"rt":34548.5,"item_order":[0,1,2,3,4],"radio_events":[13266.199999928474,20073.899999976158,22545.799999952316,29009.799999952316,30553.699999928474,33306.5],"checkbox_events":[14657.899999976158,15145.799999952316,16217.699999928474,16681.899999976158,18354.199999928474,23889.399999976158,24673.799999952316,25161.899999976158,25650,26145.699999928474],"key_events":[],"mouse_events":[12289.799999952316,13002.100000023842,13266.199999928474,14657.899999976158,15145.799999952316,16217.699999928474,16681.899999976158,18354.199999928474,20073.899999976158,22545.799999952316,23889.399999976158,24673.799999952316,25161.899999976158,25650,26145.699999928474,29009.799999952316,30553.699999928474,33306.5,34546.10000002384],"honeypot":0,"survey":"mace","page":6,"trial_type":"survey-mace","trial_index":14,"time_elapsed":571131,"internal_node_id":"0.0-14.0","task_version":"prescreen-v0.3","browser_interactions":0},{"responses":{"01":"No","02":"No","03":"No","04":"No","05":"No","06":"No","07":"No"},"rt":17548.600000023842,"item_order":[0,1,2,3,4,5,6],"radio_events":[5777.100000023842,7825.100000023842,9313.100000023842,10697.100000023842,13329,14304.899999976158,15560.899999976158],"checkbox_events":[],"key_events":[],"mouse_events":[5777.100000023842,7825.100000023842,9313.100000023842,10176.700000047684,10697.100000023842,11736.899999976158,13329,14304.899999976158,15560.899999976158,17545.100000023842],"honeypot":0,"survey":"mace","page":7,"trial_type":"survey-mace","trial_index":15,"time_elapsed":588685,"internal_node_id":"0.0-15.0","task_version":"prescreen-v0.3","browser_interactions":0},{"responses":{"01":"No","02":"No","03":"No","04":"No"},"rt":41154.300000071526,"item_order":[0,1,2,3],"radio_events":[32352.100000023842,34800.200000047684,37159.800000071526,39816.10000002384],"checkbox_events":[],"key_events":[],"mouse_events":[25904.100000023842,32352.100000023842,34264,34800.200000047684,37159.800000071526,39816.10000002384,41152.200000047684],"honeypot":0,"survey":"mace","page":8,"trial_type":"survey-mace","trial_index":16,"time_elapsed":629824,"internal_node_id":"0.0-16.0","task_version":"prescreen-v0.3","browser_interactions":0},{"responses":{"01":"Yes","01_ages_1":"1","01_ages_2":"2","01_ages_3":"3","01_ages_4":"4","01_ages_5":"5","01_ages_6":"6","01_ages_7":"7","01_ages_8":"8","01_ages_9":"9","01_ages_10":"10","01_ages_11":"11","01_ages_12":"12","01_ages_13":"13","01_ages_14":"14","01_ages_15":"15","01_ages_16":"16","01_ages_17":"17","01_ages_18":"18","02":"Yes","02_ages_1":"1","02_ages_2":"2","02_ages_3":"3","02_ages_4":"4","02_ages_5":"5","02_ages_6":"6","02_ages_7":"7","02_ages_8":"8","02_ages_9":"9","02_ages_10":"10","02_ages_11":"11","02_ages_12":"12","02_ages_13":"13","02_ages_14":"14","02_ages_15":"15","02_ages_16":"16","02_ages_17":"17","02_ages_18":"18","03":"Yes","03_ages_1":"1","03_ages_2":"2","03_ages_3":"3","03_ages_4":"4","03_ages_5":"5","03_ages_6":"6","03_ages_7":"7","03_ages_8":"8","03_ages_9":"9","03_ages_10":"10","03_ages_11":"11","03_ages_12":"12","03_ages_13":"13","03_ages_14":"14","03_ages_15":"15","03_ages_16":"16","03_ages_17":"17","03_ages_18":"18","04":"Yes","04_ages_1":"1","04_ages_2":"2","04_ages_3":"3","04_ages_4":"4","04_ages_5":"5","04_ages_6":"6","04_ages_7":"7","04_ages_8":"8","04_ages_9":"9","04_ages_10":"10","04_ages_11":"11","04_ages_12":"12","04_ages_13":"13","04_ages_14":"14","04_ages_15":"15","04_ages_16":"16","04_ages_17":"17","04_ages_18":"18"},"rt":63540.5,"item_order":[0,1,2,3],"radio_events":[5714.599999904633,7618.199999928474,12594.199999928474,38210,49530.09999990463],"checkbox_events":[14466,15146.299999952316,15626.199999928474,16122.199999928474,16738.299999952316,17258.399999976158,18178,18866.899999976158,19602.299999952316,20338.299999952316,20674.299999952316,21610.299999952316,22034.299999952316,22882.299999952316,23298.5,23922.299999952316,24298.199999928474,24786.399999976158,25786.299999952316,26314.299999952316,26898.399999976158,27922.399999976158,28354.399999976158,28778.299999952316,29194.299999952316,30082.199999928474,30522.299999952316,31010.299999952316,31426.299999952316,31858,32394.399999976158,32826.39999997616,33282.299999952316,33730.299999952316,34386.299999952316,35018.39999997616,39514.09999990463,39922,40690,41722.299999952316,42354.199999928474,42866.39999997616,43570.299999952316,43906.39999997616,44626.299999952316,44954.09999990463,45418.199999928474,45810.09999990463,46370.699999928474,46746.299999952316,47146.39999997616,47826.59999990463,48337.89999997616,48858.09999990463,50785.89999997616,52002.199999928474,52818,53386.5,54578.299999952316,54946.199999928474,55322.199999928474,55778.09999990463,56802.299999952316,58274.299999952316,58762.299999952316,59490.299999952316,59810.299999952316,60250.39999997616,60690.39999997616,61146.5,61682.299999952316,62098.09999990463,62570.299999952316,63002.09999990463],"key_events":[],"mouse_events":[5714.599999904633,7210.099999904633,7618.199999928474,12594.199999928474,14466,15146.299999952316,15626.199999928474,16122.199999928474,16738.299999952316,17258.399999976158,17706.099999904633,18178,18866.899999976158,19602.299999952316,19962.199999928474,20338.299999952316,20674.299999952316,21098.299999952316,21610.299999952316,22034.299999952316,22466.099999904633,22882.299999952316,23298.5,23922.299999952316,24298.199999928474,24786.399999976158,25786.299999952316,26314.299999952316,26898.399999976158,27354.099999904633,27922.399999976158,28354.399999976158,28778.299999952316,29194.299999952316,29746.199999928474,30082.199999928474,30522.299999952316,31010.299999952316,31426.299999952316,31858,32394.399999976158,32826.39999997616,33282.299999952316,33730.299999952316,34386.299999952316,35018.39999997616,38210,39514.09999990463,39922,40690,41234,41722.299999952316,42354.199999928474,42866.39999997616,43242.299999952316,43570.299999952316,43906.39999997616,44290.299999952316,44626.299999952316,44954.09999990463,45418.199999928474,45810.09999990463,46370.699999928474,46746.299999952316,47146.39999997616,47826.59999990463,48337.89999997616,48858.09999990463,49530.09999990463,50785.89999997616,51337.799999952316,52002.199999928474,52818,53386.5,54002.199999928474,54578.299999952316,54946.199999928474,55322.199999928474,55778.09999990463,56802.299999952316,57330.699999928474,57690.299999952316,58274.299999952316,58762.299999952316,59178.799999952316,59490.299999952316,59810.299999952316,60250.39999997616,60690.39999997616,61146.5,61682.299999952316,62098.09999990463,62570.299999952316,63002.09999990463,63538.5],"honeypot":0,"survey":"mace","page":9,"trial_type":"survey-mace","trial_index":17,"time_elapsed":693349,"internal_node_id":"0.0-17.0","task_version":"prescreen-v0.3","browser_interactions":0},{"responses":{"01":"No","02":"No","03":"No","04":"No","05":"No","06":"Yes","06_ages_17":"17","07":"Yes","07_ages_1":"1","07_ages_2":"2","07_ages_3":"3","07_ages_4":"4","07_ages_5":"5","07_ages_6":"6","07_ages_7":"7","07_ages_8":"8","07_ages_9":"9","07_ages_10":"10","07_ages_11":"11","07_ages_12":"12","07_ages_13":"13","07_ages_14":"14","07_ages_15":"15","07_ages_16":"16","07_ages_17":"17","07_ages_18":"18","08":"Yes","08_ages_1":"1","08_ages_2":"2","08_ages_3":"3","08_ages_4":"4","08_ages_5":"5","08_ages_6":"6","08_ages_7":"7","08_ages_8":"8","08_ages_9":"9","08_ages_10":"10","08_ages_11":"11","08_ages_12":"12","08_ages_13":"13","08_ages_14":"14","08_ages_15":"15","08_ages_16":"16","08_ages_17":"17","08_ages_18":"18"},"rt":53469.39999997616,"item_order":[0,1,2,3,4,5,6,7],"radio_events":[2224.8000000715256,3576.899999976158,6433.300000071526,8593.700000047684,12000.800000071526,13009.399999976158,21865.200000047684,30128.700000047684],"checkbox_events":[14632.800000071526,31041.200000047684,31593,32800.89999997616,33576.800000071526,33961.200000047684,34633.200000047684,34992.800000071526,35720.89999997616,36089,36777.10000002384,37713.300000071526,38201.10000002384,38985.300000071526,39401,39920.89999997616,40433.200000047684,41065.300000071526,41761.10000002384,43272.700000047684,43897.10000002384,44729.200000047684,45129.200000047684,45929.200000047684,46681.200000047684,47240.800000071526,48001.200000047684,48401.200000047684,48785.300000071526,49225,49784.89999997616,50176.800000071526,50865.10000002384,51401.200000047684,51920.700000047684,52481.5,52945],"key_events":[],"mouse_events":[2224.8000000715256,3576.899999976158,6433.300000071526,7737.200000047684,8593.700000047684,10025.200000047684,12000.800000071526,13009.399999976158,14632.800000071526,21865.200000047684,29768.700000047684,30128.700000047684,31041.200000047684,31593,31977.100000023842,32344.899999976158,32800.89999997616,33576.800000071526,33961.200000047684,34321.200000047684,34633.200000047684,34992.800000071526,35384.700000047684,35720.89999997616,36089,36481.5,36777.10000002384,37289.200000047684,37713.300000071526,38201.10000002384,38657.200000047684,38985.300000071526,39401,39920.89999997616,40433.200000047684,41065.300000071526,41761.10000002384,43272.700000047684,43897.10000002384,44392.89999997616,44729.200000047684,45129.200000047684,45545.200000047684,45929.200000047684,46681.200000047684,47240.800000071526,48001.200000047684,48401.200000047684,48785.300000071526,49225,49784.89999997616,50176.800000071526,50865.10000002384,51401.200000047684,51920.700000047684,52481.5,52945,53465.5],"honeypot":0,"survey":"mace","page":10,"trial_type":"survey-mace","trial_index":18,"time_elapsed":746805,"internal_node_id":"0.0-18.0","task_version":"prescreen-v0.3","browser_interactions":0,"instructed":0},{"rt":4928.100000023842,"trial_type":"mental-health-alert","trial_index":19,"time_elapsed":751735,"internal_node_id":"0.0-19.0","task_version":"prescreen-v0.3","interactions":"[{\"event\":\"blur\",\"trial\":1,\"time\":39277},{\"event\":\"focus\",\"trial\":1,\"time\":42127}]"}]