[{"view_history":[{"page_index":0,"viewing_time":7043},{"page_index":1,"viewing_time":5110.699999988079},{"page_index":2,"viewing_time":5251.300000011921},{"page_index":3,"viewing_time":1233.9000000357628}],"rt":18640.400000035763,"trial_type":"instructions","trial_index":0,"time_elapsed":18683,"internal_node_id":"0.0-0.0","task_version":"prescreen-v0.3"},{"rt":13873.199999988079,"responses":{"age":"28","gender-categorical":"Male","gender-free-response":"","ethnicity":"Not Hispanic or Latino","race":["White"],"education":"Some college","siblings":"1"},"trial_type":"survey-demo","trial_index":1,"time_elapsed":32570,"internal_node_id":"0.0-1.0","task_version":"prescreen-v0.3"},{"responses":{"Q19":"1","Q21":"3","Q10":"1","Q14":"1","Q15":"2","Q02":"2","Q18":"1","Q04":"2","Q20":"1","Q09":"3","Q13":"2","Q03":"1","Q05":"2","Q11":"2","Q06":"0","Q17":"1","Q16":"1","Q07":"2","Q12":"2","Q08":"3","Q01":"2"},"rt":147673.60000002384,"item_order":[18,20,9,13,14,1,17,3,19,8,12,2,4,10,5,16,15,6,11,7,0],"radio_events":[13839.800000011921,21710.600000023842,28809.200000047684,36116.40000003576,42269.5,45877.5,48796.700000047684,50996.40000003576,54185.200000047684,61960.60000002384,63501.10000002384,73151.5,79048.80000001192,82948.10000002384,86077.80000001192,100581.40000003576,107994.40000003576,115603.80000001192,120937,125214.5,131813.10000002384,136471.30000001192,141292.30000001192,145913.60000002384,147069.60000002384],"key_events":[],"mouse_events":[13195.700000047684,13839.800000011921,21710.600000023842,27645.900000035763,28809.200000047684,35752.700000047684,36116.40000003576,42269.5,45877.5,48796.700000047684,50996.40000003576,54185.200000047684,61527.10000002384,61960.60000002384,63501.10000002384,72637.70000004768,73151.5,79048.80000001192,82948.10000002384,86077.80000001192,100581.40000003576,107994.40000003576,115603.80000001192,119157.40000003576,119940.90000003576,120937,125214.5,131813.10000002384,136471.30000001192,141292.30000001192,145913.60000002384,147069.60000002384,147669.10000002384],"straightlining":0.42857142857142855,"zigzagging":0.55,"honeypot":0,"survey":"sns","trial_type":"survey-template","trial_index":2,"time_elapsed":180254,"internal_node_id":"0.0-2.0","task_version":"prescreen-v0.3","browser_interactions":0,"infrequency":0},{"responses":{"Q04":"3","Q08":"2","Q06":"3","Q09":"2","Q02":"1","Q12":"1","Q13":"0","Q05":"3","Q03":"2","Q01":"3","Q07":"3","Q11":"2","Q10":"1"},"rt":92235,"item_order":[3,7,5,8,1,11,12,4,2,0,6,10,9],"radio_events":[9101.5,14314.300000011921,17737.69999998808,23169.5,26171.19999998808,30524,34197.59999996424,52141.5,62171.89999997616,66293.69999998808,72348.89999997616,73474.30000001192,76844.19999998808,84835,88444.59999996424,91370.5],"key_events":[],"mouse_events":[9101.5,14314.300000011921,17737.69999998808,23169.5,26171.19999998808,30524,34197.59999996424,49498.39999997616,52141.5,61520.69999998808,62171.89999997616,66293.69999998808,72348.89999997616,73474.30000001192,76844.19999998808,84835,87523.09999996424,88444.59999996424,91370.5,92232.59999996424],"straightlining":0.38461538461538464,"zigzagging":0.8333333333333334,"honeypot":0,"survey":"bisbas","trial_type":"survey-template","trial_index":3,"time_elapsed":272495,"internal_node_id":"0.0-3.0","task_version":"prescreen-v0.3","browser_interactions":0,"infrequency":0},{"responses":{"Q01":"2","Q02":"2","Q03":"3"},"rt":15512.299999952316,"radio_events":[7198,10521.599999964237,14887],"key_events":[],"mouse_events":[7198,10521.599999964237,14887,15510.799999952316],"survey":"map","page":1,"trial_type":"survey-map","trial_index":4,"time_elapsed":288014,"internal_node_id":"0.0-4.0","task_version":"prescreen-v0.3","browser_interactions":0},{"responses":{"Q04":"0","Q05":"1","Q06":"2"},"rt":16882.599999964237,"radio_events":[4770.899999976158,7294.399999976158,8634.399999976158,15463.199999988079],"key_events":[],"mouse_events":[3892.399999976158,4770.899999976158,6016.599999964237,7294.399999976158,8634.399999976158,15463.199999988079,16881.099999964237],"survey":"map","page":2,"trial_type":"survey-map","trial_index":5,"time_elapsed":304903,"internal_node_id":"0.0-5.0","task_version":"prescreen-v0.3","browser_interactions":0},{"responses":{"Q07":"3","Q08":"2","Q09":"2"},"rt":19781.100000023842,"radio_events":[8327.399999976158,8919.600000023842,15928.699999988079,18322],"key_events":[],"mouse_events":[8327.399999976158,8919.600000023842,15928.699999988079,18322,19779.69999998808],"survey":"map","page":3,"trial_type":"survey-map","trial_index":6,"time_elapsed":324688,"internal_node_id":"0.0-6.0","task_version":"prescreen-v0.3","browser_interactions":0},{"responses":{"Q10":"1","Q11":"2","Q12":"0","Q13":"1","Q16":"0","Q14":"1","Q15":"2"},"rt":28286.80000001192,"radio_events":[4053.800000011921,8293.199999988079,12642.599999964237,16422.19999998808,20187.69999998808,23297.30000001192,27644.399999976158],"key_events":[],"mouse_events":[4053.800000011921,8293.199999988079,12642.599999964237,16422.19999998808,19499.599999964237,20187.69999998808,23297.30000001192,27644.399999976158,28284.69999998808],"survey":"map","page":4,"trial_type":"survey-map","trial_index":7,"time_elapsed":352981,"internal_node_id":"0.0-7.0","task_version":"prescreen-v0.3","browser_interactions":0,"infrequency":0},{"view_history":[{"page_index":0,"viewing_time":2752.899999976158},{"page_index":1,"viewing_time":5192.900000035763}],"rt":7947.800000011921,"trial_type":"instructions","trial_index":8,"time_elapsed":360931,"internal_node_id":"0.0-8.0","task_version":"prescreen-v0.3"},{"responses":{"01":"No","02":"No","03":"No","04":"No","05":"No","06":"No"},"rt":20814.30000001192,"item_order":[0,1,2,3,4,5],"radio_events":[7289.399999976158,13054.599999964237,16473.69999998808,17375.899999976158,19075.69999998808,20389.30000001192],"checkbox_events":[],"key_events":[],"mouse_events":[0.5,7289.399999976158,13054.599999964237,15207.599999964237,16074,16473.69999998808,17375.899999976158,18367.69999998808,19075.69999998808,20389.30000001192,20809.399999976158],"honeypot":0,"survey":"mace","page":1,"trial_type":"survey-mace","trial_index":9,"time_elapsed":381760,"internal_node_id":"0.0-9.0","task_version":"prescreen-v0.3","browser_interactions":0},{"responses":{"01":"No","02":"No","03":"No","04":"No","05":"No","06":"No","07":"No","08":"No"},"rt":20053.100000023842,"item_order":[0,1,2,3,4,5,6,7],"radio_events":[1701.1000000238419,3232.5,3934.400000035763,13516.300000011921,15546.600000023842,16780.600000023842,18250.30000001192,19575.80000001192],"checkbox_events":[],"key_events":[],"mouse_events":[1701.1000000238419,2531.100000023842,3232.5,3934.400000035763,13516.300000011921,14530.300000011921,15546.600000023842,16780.600000023842,17448.5,17884,18250.30000001192,18978.5,19575.80000001192,20046.400000035763],"honeypot":0,"survey":"mace","page":2,"trial_type":"survey-mace","trial_index":10,"time_elapsed":401822,"internal_node_id":"0.0-10.0","task_version":"prescreen-v0.3","browser_interactions":0},{"responses":{"01":"No","02":"No","03":"No","04":"No"},"rt":8105.399999976158,"item_order":[0,1,2,3],"radio_events":[3354.600000023842,4388.399999976158,5924.199999988079,6596.300000011921],"checkbox_events":[],"key_events":[],"mouse_events":[3354.600000023842,4388.399999976158,5924.199999988079,6596.300000011921,8101.899999976158],"honeypot":0,"survey":"mace","page":3,"trial_type":"survey-mace","trial_index":11,"time_elapsed":409934,"internal_node_id":"0.0-11.0","task_version":"prescreen-v0.3","browser_interactions":0},{"responses":{"01":"No","02":"No"},"rt":4523.699999988079,"item_order":[0,1],"radio_events":[2789.399999976158,3771.5],"checkbox_events":[],"key_events":[],"mouse_events":[1985.5999999642372,2789.399999976158,3771.5,4521.299999952316],"honeypot":0,"survey":"mace","page":4,"trial_type":"survey-mace","trial_index":12,"time_elapsed":414462,"internal_node_id":"0.0-12.0","task_version":"prescreen-v0.3","browser_interactions":0},{"responses":{"01":"No","02":"No","03":"No","04":"No","05":"No"},"rt":10026.600000023842,"item_order":[0,1,2,3,4],"radio_events":[2971.800000011921,4905.699999988079,5747.100000023842,8343,9293.100000023842],"checkbox_events":[],"key_events":[],"mouse_events":[2971.800000011921,4905.699999988079,5747.100000023842,7191.400000035763,8343,9293.100000023842,10022.300000011921],"honeypot":0,"survey":"mace","page":5,"trial_type":"survey-mace","trial_index":13,"time_elapsed":424495,"internal_node_id":"0.0-13.0","task_version":"prescreen-v0.3","browser_interactions":0},{"responses":{"01":"Yes","01_ages_11":"11","01_ages_12":"12","01_ages_13":"13","01_ages_14":"14","02":"Yes","02_ages_11":"11","02_ages_12":"12","02_ages_13":"13","02_ages_14":"14","03":"Yes","03_ages_12":"12","03_ages_13":"13","03_ages_14":"14","04":"Yes","04_ages_11":"11","04_ages_12":"12","04_ages_13":"13","04_ages_14":"14","05":"Yes","05_ages_13":"13","05_ages_14":"14"},"rt":88519.80000001192,"item_order":[0,1,2,3,4],"radio_events":[11249.199999988079,22205.80000001192,60310.69999998808,72319.10000002384,84685.19999998808],"checkbox_events":[35126.90000003576,35890.69999998808,37699.80000001192,39145.40000003576,39871.40000003576,41055.30000001192,41566.69999998808,42536.69999998808,43157.30000001192,43939,45494.60000002384,46198.5,47368.60000002384,47876.30000001192,64682,66236,67617.40000003576,78286.69999998808,78925.30000001192,79446.19999998808,80459.90000003576,86368.80000001192,86725.19999998808],"key_events":[],"mouse_events":[11249.199999988079,22205.80000001192,35126.90000003576,35890.69999998808,37699.80000001192,39145.40000003576,39871.40000003576,40225.5,41055.30000001192,41566.69999998808,42044.5,42536.69999998808,43157.30000001192,43939,45494.60000002384,46198.5,47368.60000002384,47876.30000001192,60310.69999998808,64682,65349.60000002384,66236,66780.5,67617.40000003576,72319.10000002384,78286.69999998808,78925.30000001192,79446.19999998808,80459.90000003576,84685.19999998808,86368.80000001192,86725.19999998808,88515.69999998808],"honeypot":0,"survey":"mace","page":6,"trial_type":"survey-mace","trial_index":14,"time_elapsed":513020,"internal_node_id":"0.0-14.0","task_version":"prescreen-v0.3","browser_interactions":0},{"responses":{"01":"No","02":"No","03":"Yes","03_ages_12":"12","03_ages_13":"13","03_ages_14":"14","04":"Yes","04_ages_13":"13","04_ages_14":"14","05":"No","06":"No","07":"No"},"rt":32769,"item_order":[0,1,2,3,4,5,6],"radio_events":[4489.600000023842,7873.100000023842,9590.699999988079,21437.100000023842,28862.30000001192,30319.80000001192,31967.600000023842],"checkbox_events":[13642.100000023842,14106.199999988079,16821.80000001192,25150.69999998808,26472.30000001192],"key_events":[],"mouse_events":[4489.600000023842,7260.900000035763,7873.100000023842,9590.699999988079,13642.100000023842,14106.199999988079,16821.80000001192,21437.100000023842,25150.69999998808,26472.30000001192,28862.30000001192,30319.80000001192,31006.19999998808,31967.600000023842,32762],"honeypot":0,"survey":"mace","page":7,"trial_type":"survey-mace","trial_index":15,"time_elapsed":545797,"internal_node_id":"0.0-15.0","task_version":"prescreen-v0.3","browser_interactions":0},{"responses":{"01":"No","02":"Yes","02_ages_1":"1","02_ages_2":"2","02_ages_3":"3","02_ages_4":"4","02_ages_5":"5","02_ages_6":"6","02_ages_7":"7","02_ages_8":"8","02_ages_9":"9","02_ages_10":"10","02_ages_11":"11","02_ages_12":"12","02_ages_13":"13","02_ages_14":"14","02_ages_15":"15","02_ages_16":"16","02_ages_17":"17","02_ages_18":"18","03":"Yes","03_ages_13":"13","03_ages_14":"14","03_ages_15":"15","03_ages_16":"16","03_ages_17":"17","03_ages_18":"18","04":"Yes","04_ages_7":"7","04_ages_8":"8","04_ages_9":"9","04_ages_10":"10","04_ages_11":"11","04_ages_12":"12","04_ages_13":"13","04_ages_14":"14","04_ages_15":"15","04_ages_16":"16","04_ages_17":"17","04_ages_18":"18"},"rt":69338.70000004768,"item_order":[0,1,2,3],"radio_events":[7813.100000023842,16559.80000001192,18387.200000047684,36197.200000047684,50521.10000002384],"checkbox_events":[19515.30000001192,20349,20767.200000047684,21432.900000035763,22732.700000047684,23656.700000047684,24380.5,24872.900000035763,25782.100000023842,26230.200000047684,26870.200000047684,27651.80000001192,28104,28538,29204,29899.80000001192,30327.5,30825.700000047684,31269.600000023842,31869.5,40804.5,41478.5,41948.80000001192,42830.10000002384,43238.200000047684,43918,44691.60000002384,47339.60000002384,62603.200000047684,63199.30000001192,63633.60000002384,64136.90000003576,64729.200000047684,65297.200000047684,65880.70000004768,66301.30000001192,66808.90000003576,67512.70000004768,68128.70000004768,68576.5],"key_events":[],"mouse_events":[7813.100000023842,16559.80000001192,18387.200000047684,19515.30000001192,19877.100000023842,20349,20767.200000047684,21432.900000035763,22144.30000001192,22732.700000047684,23656.700000047684,24380.5,24872.900000035763,25782.100000023842,26230.200000047684,26870.200000047684,27651.80000001192,28104,28538,29204,29899.80000001192,30327.5,30825.700000047684,31269.600000023842,31869.5,36197.200000047684,40804.5,41478.5,41948.80000001192,42432.200000047684,42830.10000002384,43238.200000047684,43918,44326,44691.60000002384,47339.60000002384,50521.10000002384,62603.200000047684,63199.30000001192,63633.60000002384,64136.90000003576,64729.200000047684,65297.200000047684,65880.70000004768,66301.30000001192,66808.90000003576,67512.70000004768,68128.70000004768,68576.5,69334.40000003576],"honeypot":0,"survey":"mace","page":8,"trial_type":"survey-mace","trial_index":16,"time_elapsed":615142,"internal_node_id":"0.0-16.0","task_version":"prescreen-v0.3","browser_interactions":0},{"responses":{"01":"Yes","01_ages_1":"1","01_ages_2":"2","01_ages_3":"3","01_ages_4":"4","01_ages_5":"5","01_ages_6":"6","01_ages_7":"7","01_ages_8":"8","01_ages_9":"9","01_ages_10":"10","01_ages_11":"11","01_ages_12":"12","01_ages_13":"13","01_ages_14":"14","01_ages_15":"15","01_ages_16":"16","01_ages_17":"17","01_ages_18":"18","02":"Yes","02_ages_1":"1","02_ages_2":"2","02_ages_3":"3","02_ages_4":"4","02_ages_5":"5","02_ages_6":"6","02_ages_7":"7","02_ages_8":"8","02_ages_9":"9","02_ages_10":"10","02_ages_11":"11","02_ages_12":"12","02_ages_13":"13","02_ages_14":"14","02_ages_15":"15","02_ages_16":"16","02_ages_17":"17","02_ages_18":"18","03":"Yes","03_ages_1":"1","03_ages_2":"2","03_ages_3":"3","03_ages_4":"4","03_ages_5":"5","03_ages_6":"6","03_ages_7":"7","03_ages_8":"8","03_ages_9":"9","03_ages_10":"10","03_ages_11":"11","03_ages_12":"12","03_ages_13":"13","03_ages_14":"14","03_ages_15":"15","03_ages_16":"16","03_ages_17":"17","03_ages_18":"18","04":"Yes","04_ages_1":"1","04_ages_2":"2","04_ages_3":"3","04_ages_4":"4","04_ages_5":"5","04_ages_6":"6","04_ages_7":"7","04_ages_8":"8","04_ages_9":"9","04_ages_10":"10","04_ages_11":"11","04_ages_12":"12","04_ages_13":"13","04_ages_14":"14","04_ages_15":"15","04_ages_16":"16","04_ages_17":"17","04_ages_18":"18"},"rt":54665.69999998808,"item_order":[0,1,2,3],"radio_events":[2412.800000011921,17343.099999964237,32385,44191.39999997616],"checkbox_events":[4592.599999964237,5072.300000011921,5454.599999964237,6676.099999964237,7026.699999988079,7440.399999976158,8278.199999988079,9011.899999976158,9368.099999964237,10536.099999964237,10945.699999988079,11763.300000011921,12160.199999988079,12664.899999976158,13431.5,14522.699999988079,15103.300000011921,15599.099999964237,18366.399999976158,18792.69999998808,19444.69999998808,19884.5,20758.30000001192,21354,22298.30000001192,22692.19999998808,23640.099999964237,24796.19999998808,25327.399999976158,26015.599999964237,26443.399999976158,26905.5,27535.399999976158,28103.30000001192,28635.5,29343,34370.59999996424,34874.09999996424,35446.19999998808,36170.19999998808,36598.59999996424,36924.30000001192,37407.69999998808,37944,38618.30000001192,39357.89999997616,39753.69999998808,40215.69999998808,40735.19999998808,41165.80000001192,41642.09999996424,42025.39999997616,42403.30000001192,43209.39999997616,45195.09999996424,45683.19999998808,46414.5,46910.69999998808,47410.89999997616,48066.39999997616,48484.5,49163.09999996424,49582.59999996424,50114.59999996424,50689,51108.30000001192,51700.30000001192,52172.59999996424,52610.19999998808,53034.19999998808,53470.19999998808,53844.39999997616],"key_events":[],"mouse_events":[2412.800000011921,4592.599999964237,5072.300000011921,5454.599999964237,5808.099999964237,6676.099999964237,7026.699999988079,7440.399999976158,8278.199999988079,9011.899999976158,9368.099999964237,9931.699999988079,10536.099999964237,10945.699999988079,11763.300000011921,12160.199999988079,12664.899999976158,13041,13431.5,14237.699999988079,14522.699999988079,15103.300000011921,15599.099999964237,16484.899999976158,17343.099999964237,18366.399999976158,18792.69999998808,19444.69999998808,19884.5,20419.69999998808,20758.30000001192,21354,22298.30000001192,22692.19999998808,23640.099999964237,24796.19999998808,25327.399999976158,26015.599999964237,26443.399999976158,26905.5,27535.399999976158,28103.30000001192,28635.5,29343,31646.5,32385,34370.59999996424,34874.09999996424,35446.19999998808,36170.19999998808,36598.59999996424,36924.30000001192,37407.69999998808,37944,38618.30000001192,39055.80000001192,39357.89999997616,39753.69999998808,40215.69999998808,40735.19999998808,41165.80000001192,41642.09999996424,42025.39999997616,42403.30000001192,42851.30000001192,43209.39999997616,44191.39999997616,45195.09999996424,45683.19999998808,46414.5,46910.69999998808,47410.89999997616,48066.39999997616,48484.5,49163.09999996424,49582.59999996424,50114.59999996424,50689,51108.30000001192,51700.30000001192,52172.59999996424,52610.19999998808,53034.19999998808,53470.19999998808,53844.39999997616,54662.39999997616],"honeypot":0,"survey":"mace","page":9,"trial_type":"survey-mace","trial_index":17,"time_elapsed":669816,"internal_node_id":"0.0-17.0","task_version":"prescreen-v0.3","browser_interactions":0},{"responses":{"01":"No","02":"No","03":"No","04":"No","05":"Yes","05_ages_14":"14","05_ages_15":"15","05_ages_16":"16","06":"Yes","06_ages_17":"17","07":"Yes","07_ages_1":"1","07_ages_2":"2","07_ages_3":"3","07_ages_4":"4","07_ages_5":"5","07_ages_6":"6","07_ages_7":"7","07_ages_8":"8","07_ages_9":"9","07_ages_10":"10","07_ages_11":"11","07_ages_12":"12","07_ages_13":"13","07_ages_14":"14","07_ages_15":"15","07_ages_16":"16","07_ages_17":"17","07_ages_18":"18","08":"Yes","08_ages_10":"10","08_ages_11":"11","08_ages_12":"12","08_ages_13":"13","08_ages_14":"14","08_ages_15":"15","08_ages_16":"16","08_ages_17":"17","08_ages_18":"18"},"rt":59650.40000003576,"item_order":[0,1,2,3,4,5,6,7],"radio_events":[2387.800000011921,3391.800000011921,4483,6405.100000023842,12418.200000047684,15279.600000023842,15577.700000047684,32581.700000047684,37306.60000002384,49819.40000003576],"checkbox_events":[19678.700000047684,20141.30000001192,20797.30000001192,21185.100000023842,22602.600000023842,23504.700000047684,26152.5,34075,39384.5,39892.30000001192,40258.10000002384,41460.10000002384,41778.10000002384,42477.90000003576,42861.700000047684,43247.90000003576,44087.90000003576,44407.80000001192,45085.80000001192,46099.80000001192,46527.40000003576,47251.5,47683.5,48097.30000001192,48509.10000002384,48915.30000001192,54446.5,55812,56184.30000001192,56678.40000003576,57082.30000001192,57662.200000047684,58178,58583.60000002384,58957.700000047684],"key_events":[],"mouse_events":[2387.800000011921,3391.800000011921,4483,6405.100000023842,8068.300000011921,9050.600000023842,12418.200000047684,15279.600000023842,15577.700000047684,19678.700000047684,20141.30000001192,20797.30000001192,21185.100000023842,22602.600000023842,23504.700000047684,26152.5,32581.700000047684,34075,37306.60000002384,39384.5,39892.30000001192,40258.10000002384,40809.90000003576,41460.10000002384,41778.10000002384,42477.90000003576,42861.700000047684,43247.90000003576,43728.10000002384,44087.90000003576,44407.80000001192,45085.80000001192,45471.60000002384,46099.80000001192,46527.40000003576,47251.5,47683.5,48097.30000001192,48509.10000002384,48915.30000001192,49819.40000003576,54446.5,54935,55812,56184.30000001192,56678.40000003576,57082.30000001192,57662.200000047684,58178,58583.60000002384,58957.700000047684,59644.10000002384],"honeypot":0,"survey":"mace","page":10,"trial_type":"survey-mace","trial_index":18,"time_elapsed":729474,"internal_node_id":"0.0-18.0","task_version":"prescreen-v0.3","browser_interactions":0,"instructed":0},{"rt":60397.19999998808,"trial_type":"mental-health-alert","trial_index":19,"time_elapsed":789876,"internal_node_id":"0.0-19.0","task_version":"prescreen-v0.3","interactions":"[{\"event\":\"blur\",\"trial\":19,\"time\":734709},{\"event\":\"focus\",\"trial\":19,\"time\":742774},{\"event\":\"blur\",\"trial\":19,\"time\":742775},{\"event\":\"focus\",\"trial\":19,\"time\":788626}]"}]