[{"view_history":[{"page_index":0,"viewing_time":2964.300000000745},{"page_index":1,"viewing_time":5289.0999999996275},{"page_index":2,"viewing_time":4036.9000000003725},{"page_index":3,"viewing_time":1306.5}],"rt":13599.199999999255,"trial_type":"instructions","trial_index":0,"time_elapsed":13615,"internal_node_id":"0.0-0.0","task_version":"prescreen-v0.3"},{"rt":15789.699999999255,"responses":{"age":"18","gender-categorical":"Female","gender-free-response":"","ethnicity":"Not Hispanic or Latino","race":["White"],"education":"Some college"},"trial_type":"survey-demo","trial_index":1,"time_elapsed":29426,"internal_node_id":"0.0-1.0","task_version":"prescreen-v0.3"},{"responses":{"Q17":"2","Q18":"1","Q10":"2","Q05":"0","Q01":"2","Q06":"0","Q09":"1","Q02":"1","Q03":"1","Q04":"2","Q20":"0","Q12":"1","Q19":"0","Q08":"3","Q15":"2","Q21":"3","Q13":"1","Q11":"2","Q16":"2","Q07":"1","Q14":"2"},"rt":189153.09999999963,"item_order":[16,17,9,4,0,5,8,1,2,3,19,11,18,7,14,20,12,10,15,6,13],"radio_events":[8903.900000000373,15480.700000001118,20951.700000001118,35590.90000000037,36820.300000000745,45118.800000000745,52563.70000000112,60558.300000000745,64352,74955.20000000112,76815.59999999963,108153.59999999963,112778.90000000037,119275.59999999963,123578.30000000075,135955.70000000112,137292.20000000112,156439.30000000075,159916.80000000075,165140.70000000112,170732.09999999963,185371.70000000112,188138.20000000112],"key_events":[],"mouse_events":[8903.900000000373,15480.700000001118,20951.700000001118,32406.5,34255.90000000037,35590.90000000037,36820.300000000745,45118.800000000745,49886.70000000112,51659.20000000112,52563.70000000112,60558.300000000745,64352,72952.70000000112,74955.20000000112,76815.59999999963,107248.40000000037,108153.59999999963,112778.90000000037,119275.59999999963,122402.59999999963,123578.30000000075,132554,135101.5,135955.70000000112,137292.20000000112,156439.30000000075,157304.90000000037,159916.80000000075,165140.70000000112,170732.09999999963,182942,184461.5,185371.70000000112,188138.20000000112,189133.80000000075],"straightlining":0.38095238095238093,"zigzagging":0.6,"honeypot":0,"survey":"sns","trial_type":"survey-template","trial_index":2,"time_elapsed":218615,"internal_node_id":"0.0-2.0","task_version":"prescreen-v0.3","browser_interactions":0,"infrequency":0},{"responses":{"Q12":"2","Q02":"0","Q03":"2","Q11":"3","Q09":"3","Q13":"0","Q01":"2","Q07":"3","Q08":"3","Q04":"3","Q05":"3","Q06":"3","Q10":"3"},"rt":131559.90000000037,"item_order":[11,1,2,10,8,12,0,6,7,3,4,5,9],"radio_events":[79054.5,80513.20000000112,87488.5,95215.90000000037,99190.30000000075,100710,107337,112457.70000000112,117508.09999999963,120575.70000000112,123466.20000000112,126829.59999999963,128561.59999999963],"key_events":[],"mouse_events":[75979.70000000112,78055.80000000075,79054.5,80513.20000000112,87488.5,91750.09999999963,93697.5,95215.90000000037,99190.30000000075,100710,107337,112457.70000000112,114250.30000000075,115599.5,117508.09999999963,120575.70000000112,123466.20000000112,126829.59999999963,128561.59999999963,130353,131546.80000000075],"straightlining":0.6153846153846154,"zigzagging":0.25,"honeypot":0,"survey":"bisbas","trial_type":"survey-template","trial_index":3,"time_elapsed":350194,"internal_node_id":"0.0-3.0","task_version":"prescreen-v0.3","browser_interactions":0,"infrequency":0},{"responses":{"Q01":"2","Q02":"2","Q03":"2"},"rt":39603.699999999255,"radio_events":[15786.900000000373,32249.099999999627,38356.199999999255],"key_events":[],"mouse_events":[15786.900000000373,31223.599999999627,32249.099999999627,38356.199999999255,39597.40000000037],"survey":"map","page":1,"trial_type":"survey-map","trial_index":4,"time_elapsed":389815,"internal_node_id":"0.0-4.0","task_version":"prescreen-v0.3","browser_interactions":2},{"responses":{"Q04":"3","Q05":"2","Q06":"3"},"rt":68794.69999999925,"radio_events":[58063.90000000037,62113.5,67993.5],"key_events":[],"mouse_events":[56687.699999999255,58063.90000000037,62113.5,67993.5,68788.30000000075],"survey":"map","page":2,"trial_type":"survey-map","trial_index":5,"time_elapsed":458627,"internal_node_id":"0.0-5.0","task_version":"prescreen-v0.3","browser_interactions":0},{"responses":{"Q07":"2","Q08":"4","Q09":"4"},"rt":18423.599999999627,"radio_events":[9367.199999999255,12721.400000000373,14485.099999999627,17630.300000000745],"key_events":[],"mouse_events":[9367.199999999255,12721.400000000373,14485.099999999627,17630.300000000745,18420.699999999255],"survey":"map","page":3,"trial_type":"survey-map","trial_index":6,"time_elapsed":477061,"internal_node_id":"0.0-6.0","task_version":"prescreen-v0.3","browser_interactions":0},{"responses":{"Q10":"0","Q11":"0","Q12":"2","Q13":"2","Q16":"0","Q14":"3","Q15":"3"},"rt":163036.3999999985,"radio_events":[109793.89999999851,112896.89999999851,117546.5,118437.69999999925,120822.29999999888,125892.59999999963,127926.79999999888,137454.79999999888,142784,155114.69999999925,162137.8999999985],"key_events":[],"mouse_events":[109793.89999999851,112896.89999999851,117546.5,118437.69999999925,120822.29999999888,124674.5,125892.59999999963,127926.79999999888,137454.79999999888,141971.8999999985,142784,155114.69999999925,162137.8999999985,163026.19999999925],"survey":"map","page":4,"trial_type":"survey-map","trial_index":7,"time_elapsed":640111,"internal_node_id":"0.0-7.0","task_version":"prescreen-v0.3","browser_interactions":0,"infrequency":0},{"view_history":[{"page_index":0,"viewing_time":2315.199999999255},{"page_index":1,"viewing_time":4285.800000000745}],"rt":6603.5999999996275,"trial_type":"instructions","trial_index":8,"time_elapsed":646721,"internal_node_id":"0.0-8.0","task_version":"prescreen-v0.3"},{"responses":{"01":"Yes","01_ages_7":"7","01_ages_8":"8","01_ages_9":"9","01_ages_10":"10","01_ages_11":"11","02":"Yes","02_ages_7":"7","02_ages_8":"8","02_ages_9":"9","02_ages_10":"10","02_ages_11":"11","03":"Yes","03_ages_7":"7","03_ages_8":"8","03_ages_9":"9","03_ages_10":"10","03_ages_11":"11","04":"No","05":"Yes","05_ages_7":"7","05_ages_8":"8","05_ages_9":"9","05_ages_10":"10","05_ages_11":"11","06":"Yes","06_ages_7":"7","06_ages_8":"8","06_ages_9":"9","06_ages_10":"10","06_ages_11":"11"},"rt":60708.70000000112,"item_order":[0,1,2,3,4,5],"radio_events":[7893.200000001118,22620.5,32948.5,42212.59999999963,46012.20000000112,54199],"checkbox_events":[14118,14993.5,15812.5,16722.300000000745,17419.5,24642.900000000373,25294.700000001118,26076.700000001118,27459,28949.900000000373,35878.90000000037,36564.300000000745,37400.300000000745,38178.59999999963,39045.20000000112,47903,48666.90000000037,49479.40000000037,50365.70000000112,50475.800000000745,50983.40000000037,51687.09999999963,56353.20000000112,57185.300000000745,57946.70000000112,58708.09999999963,59351],"key_events":[],"mouse_events":[0.5,7893.200000001118,14118,14993.5,15812.5,16722.300000000745,17419.5,22620.5,24642.900000000373,25294.700000001118,26076.700000001118,26758.5,27459,28949.900000000373,32948.5,35878.90000000037,36564.300000000745,37400.300000000745,38178.59999999963,39045.20000000112,41131.70000000112,42212.59999999963,46012.20000000112,47903,48666.90000000037,49479.40000000037,50365.70000000112,50475.800000000745,50983.40000000037,51687.09999999963,54199,56353.20000000112,57185.300000000745,57946.70000000112,58708.09999999963,59351,60681.70000000112],"honeypot":0,"survey":"mace","page":1,"trial_type":"survey-mace","trial_index":9,"time_elapsed":707467,"internal_node_id":"0.0-9.0","task_version":"prescreen-v0.3","browser_interactions":0},{"responses":{"01":"No","02":"No","03":"Yes","03_ages_5":"5","03_ages_6":"6","03_ages_7":"7","04":"No","05":"No","06":"No","07":"No","08":"No"},"rt":40060.300000000745,"item_order":[0,1,2,3,4,5,6,7],"radio_events":[17272.599999999627,20267.800000000745,24242.800000000745,31296.900000000373,34868.199999999255,36556.800000000745,38337.5,39263.300000000745],"checkbox_events":[26058.599999999627,27521.300000000745,28274.199999999255],"key_events":[],"mouse_events":[17272.599999999627,20267.800000000745,24242.800000000745,26058.599999999627,27521.300000000745,28274.199999999255,31296.900000000373,33340,34868.199999999255,36556.800000000745,38337.5,39263.300000000745,40017.90000000037],"honeypot":0,"survey":"mace","page":2,"trial_type":"survey-mace","trial_index":10,"time_elapsed":747547,"internal_node_id":"0.0-10.0","task_version":"prescreen-v0.3","browser_interactions":0},{"responses":{"01":"No","02":"No","03":"No","04":"No"},"rt":18549.5,"item_order":[0,1,2,3],"radio_events":[10487.60000000149,12373.700000001118,17058.900000000373,17846.10000000149],"checkbox_events":[],"key_events":[],"mouse_events":[10487.60000000149,12373.700000001118,17058.900000000373,17846.10000000149,18527.300000000745],"honeypot":0,"survey":"mace","page":3,"trial_type":"survey-mace","trial_index":11,"time_elapsed":766109,"internal_node_id":"0.0-11.0","task_version":"prescreen-v0.3","browser_interactions":0},{"responses":{"01":"No","02":"No"},"rt":14629.300000000745,"item_order":[0,1],"radio_events":[7188.9000000003725,9122.599999999627],"checkbox_events":[],"key_events":[],"mouse_events":[7188.9000000003725,9122.599999999627,14619.099999999627],"honeypot":0,"survey":"mace","page":4,"trial_type":"survey-mace","trial_index":12,"time_elapsed":780750,"internal_node_id":"0.0-12.0","task_version":"prescreen-v0.3","browser_interactions":0},{"responses":{"01":"No","02":"No","03":"No","04":"No","05":"No"},"rt":30582.699999999255,"item_order":[0,1,2,3,4],"radio_events":[14132.299999998882,18534.799999998882,24497,28117.400000000373,29622.5],"checkbox_events":[],"key_events":[],"mouse_events":[14132.299999998882,18534.799999998882,24497,27191.699999999255,28117.400000000373,29622.5,30557.099999999627],"honeypot":0,"survey":"mace","page":5,"trial_type":"survey-mace","trial_index":13,"time_elapsed":811351,"internal_node_id":"0.0-13.0","task_version":"prescreen-v0.3","browser_interactions":0},{"responses":{"01":"Yes","01_ages_7":"7","01_ages_8":"8","01_ages_9":"9","01_ages_10":"10","01_ages_11":"11","02":"Yes","02_ages_7":"7","02_ages_8":"8","02_ages_9":"9","02_ages_10":"10","02_ages_11":"11","03":"No","04":"No","05":"Yes","05_ages_7":"7","05_ages_8":"8","05_ages_9":"9","05_ages_10":"10","05_ages_11":"11"},"rt":39030.10000000149,"item_order":[0,1,2,3,4],"radio_events":[8936.60000000149,16300.200000001118,24845.300000000745,32119,34103.10000000149],"checkbox_events":[10583,11294.300000000745,11903.800000000745,12495.400000000373,13044.300000000745,17485.5,18101.60000000149,18762.60000000149,19365.300000000745,20096.700000001118,35737,36336.60000000149,36908.300000000745,37538.5,38151.300000000745],"key_events":[],"mouse_events":[8936.60000000149,10583,11294.300000000745,11903.800000000745,12495.400000000373,13044.300000000745,16300.200000001118,17485.5,18101.60000000149,18762.60000000149,19365.300000000745,20096.700000001118,24845.300000000745,27055.900000000373,32119,34103.10000000149,35737,36336.60000000149,36908.300000000745,37538.5,38151.300000000745,39005.40000000037],"honeypot":0,"survey":"mace","page":6,"trial_type":"survey-mace","trial_index":14,"time_elapsed":850402,"internal_node_id":"0.0-14.0","task_version":"prescreen-v0.3","browser_interactions":0},{"responses":{"01":"No","02":"Yes","02_ages_7":"7","02_ages_8":"8","02_ages_9":"9","02_ages_10":"10","02_ages_11":"11","03":"Yes","03_ages_7":"7","03_ages_8":"8","03_ages_9":"9","03_ages_10":"10","03_ages_11":"11","04":"Yes","04_ages_7":"7","04_ages_8":"8","04_ages_9":"9","04_ages_10":"10","04_ages_11":"11","05":"Yes","05_ages_7":"7","05_ages_8":"8","05_ages_9":"9","05_ages_10":"10","05_ages_11":"11","06":"No","07":"No"},"rt":51549.5,"item_order":[0,1,2,3,4,5,6],"radio_events":[6575.0999999996275,8887.300000000745,15729.200000001118,24761.400000000373,41085.800000000745,48519.09999999963,50744.20000000112],"checkbox_events":[10086.599999999627,11396.099999999627,12070.300000000745,12672.400000000373,13273.400000000373,17090.700000001118,18230.900000000373,18988.400000000373,19765.599999999627,20507.400000000373,25727.200000001118,26327,26922.5,28234.599999999627,29163.800000000745,42222.300000000745,42769.800000000745,43264.40000000037,43841.5,44582],"key_events":[],"mouse_events":[6575.0999999996275,8887.300000000745,10086.599999999627,10678.700000001118,11396.099999999627,12070.300000000745,12672.400000000373,13273.400000000373,15729.200000001118,17090.700000001118,18230.900000000373,18988.400000000373,19765.599999999627,20507.400000000373,24761.400000000373,25727.200000001118,26327,26922.5,27605,28234.599999999627,29163.800000000745,40118.59999999963,41085.800000000745,42222.300000000745,42769.800000000745,43264.40000000037,43841.5,44582,46695.800000000745,47846.70000000112,48519.09999999963,49252.09999999963,50014,50744.20000000112,51517.70000000112],"honeypot":0,"survey":"mace","page":7,"trial_type":"survey-mace","trial_index":15,"time_elapsed":901977,"internal_node_id":"0.0-15.0","task_version":"prescreen-v0.3","browser_interactions":0},{"responses":{"01":"Yes","01_ages_6":"6","01_ages_7":"7","01_ages_8":"8","01_ages_9":"9","01_ages_10":"10","01_ages_11":"11","01_ages_12":"12","01_ages_13":"13","01_ages_14":"14","01_ages_15":"15","01_ages_16":"16","01_ages_17":"17","01_ages_18":"18","02":"No","03":"Yes","03_ages_12":"12","03_ages_13":"13","03_ages_14":"14","03_ages_15":"15","03_ages_16":"16","03_ages_17":"17","03_ages_18":"18","04":"Yes","04_ages_10":"10","04_ages_11":"11","04_ages_12":"12","04_ages_13":"13","04_ages_14":"14","04_ages_15":"15","04_ages_16":"16","04_ages_17":"17","04_ages_18":"18"},"rt":70079.40000000037,"item_order":[0,1,2,3],"radio_events":[9974.200000001118,30015.700000001118,32576.900000000373,57096.09999999963],"checkbox_events":[15808.5,16857.599999999627,17677.800000000745,18374.700000001118,19263.200000001118,19980.700000001118,20803.800000000745,21542.300000000745,22246.5,23027.5,23743.5,24591,25348.5,34003.59999999963,35330.800000000745,36533.70000000112,37204.300000000745,38156.70000000112,39217.800000000745,39822.09999999963,40396.09999999963,41024.09999999963,41764.20000000112,43405.40000000037,44131.40000000037,44259.70000000112,44765.90000000037,45864.70000000112,46879.20000000112,47838.5,48478.800000000745,49069.09999999963,60942.40000000037,62366.40000000037,63162.5,63881.59999999963,64603,65507.800000000745,66460.30000000075,66612.5,67598.40000000037,68398.59999999963,69245.40000000037],"key_events":[],"mouse_events":[9974.200000001118,12559.800000000745,15808.5,16359.800000000745,16857.599999999627,17677.800000000745,18374.700000001118,19263.200000001118,19980.700000001118,20803.800000000745,21542.300000000745,22246.5,23027.5,23743.5,24591,25348.5,30015.700000001118,32576.900000000373,34003.59999999963,34630.59999999963,35330.800000000745,35921.40000000037,36533.70000000112,37204.300000000745,38156.70000000112,39217.800000000745,39822.09999999963,40396.09999999963,41024.09999999963,41764.20000000112,43405.40000000037,44131.40000000037,44259.70000000112,44765.90000000037,45864.70000000112,46879.20000000112,47838.5,48478.800000000745,49069.09999999963,57096.09999999963,60942.40000000037,61686,62366.40000000037,63162.5,63881.59999999963,64603,65507.800000000745,66460.30000000075,66612.5,67598.40000000037,68398.59999999963,69245.40000000037,70057.09999999963],"honeypot":0,"survey":"mace","page":8,"trial_type":"survey-mace","trial_index":16,"time_elapsed":972072,"internal_node_id":"0.0-16.0","task_version":"prescreen-v0.3","browser_interactions":0},{"responses":{"01":"Yes","01_ages_6":"6","01_ages_7":"7","01_ages_8":"8","01_ages_9":"9","01_ages_10":"10","01_ages_11":"11","01_ages_12":"12","01_ages_13":"13","01_ages_14":"14","01_ages_15":"15","01_ages_16":"16","01_ages_17":"17","01_ages_18":"18","02":"Yes","02_ages_6":"6","02_ages_7":"7","02_ages_8":"8","02_ages_9":"9","02_ages_10":"10","02_ages_11":"11","02_ages_12":"12","02_ages_13":"13","02_ages_14":"14","02_ages_15":"15","02_ages_16":"16","02_ages_17":"17","02_ages_18":"18","03":"No","04":"No"},"rt":82401.40000000037,"item_order":[0,1,2,3],"radio_events":[5684.5,27233.700000001118,45663.300000000745,67830.09999999963,80068.59999999963],"checkbox_events":[11190.800000000745,11827.5,12547.400000000373,13479.700000001118,14549.300000000745,15220.900000000373,15873.099999999627,16771.800000000745,17691.099999999627,17831,18679.599999999627,20406.099999999627,21443.700000001118,22499.900000000373,23784,29333.300000000745,30229.599999999627,31390.700000001118,32526.099999999627,33362.800000000745,34456.5,35234.70000000112,35947.40000000037,36614.20000000112,37988.59999999963,38933.90000000037,40397.59999999963,42229.59999999963],"key_events":[],"mouse_events":[5684.5,11190.800000000745,11827.5,12547.400000000373,13479.700000001118,14549.300000000745,15220.900000000373,15873.099999999627,16771.800000000745,17691.099999999627,17831,18679.599999999627,19415.800000000745,19680.300000000745,20406.099999999627,21443.700000001118,22499.900000000373,23784,26452.5,27233.700000001118,28467.400000000373,29333.300000000745,30229.599999999627,31390.700000001118,32526.099999999627,33362.800000000745,34456.5,35234.70000000112,35947.40000000037,36614.20000000112,37303.300000000745,37988.59999999963,38933.90000000037,40397.59999999963,42229.59999999963,45663.300000000745,67830.09999999963,80068.59999999963,82380.90000000037],"honeypot":0,"survey":"mace","page":9,"trial_type":"survey-mace","trial_index":17,"time_elapsed":1054491,"internal_node_id":"0.0-17.0","task_version":"prescreen-v0.3","browser_interactions":0},{"responses":{"01":"No","02":"No","03":"No","04":"No","05":"Yes","05_ages_6":"6","05_ages_7":"7","05_ages_8":"8","05_ages_9":"9","05_ages_10":"10","05_ages_11":"11","05_ages_12":"12","05_ages_13":"13","05_ages_14":"14","05_ages_15":"15","05_ages_16":"16","05_ages_17":"17","05_ages_18":"18","06":"Yes","06_ages_17":"17","07":"No","08":"No"},"rt":43012.29999999888,"item_order":[0,1,2,3,4,5,6,7],"radio_events":[3485,5031.699999999255,10371,11784.699999999255,14571.799999998882,34265.59999999963,40805.699999999255,42041.09999999963],"checkbox_events":[20495.5,21395.5,22410.5,23122.39999999851,23867.299999998882,24591.89999999851,25216,26624.599999999627,27771.5,28709.299999998882,29605.699999999255,30230.89999999851,30883,36102.59999999963],"key_events":[],"mouse_events":[3485,5031.699999999255,6796.0999999996275,9061.799999998882,10371,11784.699999999255,14571.799999998882,20495.5,21395.5,22410.5,23122.39999999851,23867.299999998882,24591.89999999851,25216,26624.599999999627,27771.5,28709.299999998882,29605.699999999255,30230.89999999851,30883,33554.699999999255,34265.59999999963,36102.59999999963,40805.699999999255,42041.09999999963,42975],"honeypot":0,"survey":"mace","page":10,"trial_type":"survey-mace","trial_index":18,"time_elapsed":1097532,"internal_node_id":"0.0-18.0","task_version":"prescreen-v0.3","browser_interactions":0,"instructed":0},{"rt":12552.699999999255,"trial_type":"mental-health-alert","trial_index":19,"time_elapsed":1110093,"internal_node_id":"0.0-19.0","task_version":"prescreen-v0.3","interactions":"[{\"event\":\"blur\",\"trial\":4,\"time\":355756},{\"event\":\"focus\",\"trial\":4,\"time\":357868}]"}]