[{"view_history":[{"page_index":0,"viewing_time":6937},{"page_index":1,"viewing_time":5473},{"page_index":2,"viewing_time":3810},{"page_index":3,"viewing_time":1664}],"rt":17885,"trial_type":"instructions","trial_index":0,"time_elapsed":17891,"internal_node_id":"0.0-0.0","task_version":"prescreen-v0.3"},{"rt":12698,"responses":{"age":"19","gender-categorical":"Female","gender-free-response":"","ethnicity":"Not Hispanic or Latino","race":["White"],"education":"Some college"},"trial_type":"survey-demo","trial_index":1,"time_elapsed":30594,"internal_node_id":"0.0-1.0","task_version":"prescreen-v0.3"},{"responses":{"Q20":"0","Q08":"2","Q12":"2","Q04":"2","Q05":"0","Q07":"0","Q10":"2","Q09":"2","Q11":"3","Q13":"2","Q16":"3","Q01":"0","Q02":"0","Q19":"2","Q17":"1","Q03":"1","Q14":"2","Q18":"2","Q21":"3","Q06":"1","Q15":"3"},"rt":118861,"item_order":[19,7,11,3,4,6,9,8,10,12,15,0,1,18,16,2,13,17,20,5,14],"radio_events":[13315,17694,23731,30083,34501.000000000015,41839,47720,51157,54211,56396,57956,59955,65251.000000000015,69191,71840,74878,76641.00000000001,83881,87303,89503,96980.00000000001,103960,108110,113464.00000000003,117437],"key_events":[],"mouse_events":[13315,17694,23731,30083,34501.000000000015,41839,47720,51157,54211,56396,57956,59955,65251.000000000015,69191,71840,74878,76641.00000000001,83881,87303,89503,96980.00000000001,103960,108110,113464.00000000003,117437,118850],"straightlining":0.42857142857142855,"zigzagging":0.35,"honeypot":0,"survey":"sns","trial_type":"survey-template","trial_index":2,"time_elapsed":149462,"internal_node_id":"0.0-2.0","task_version":"prescreen-v0.3","browser_interactions":0,"infrequency":0},{"responses":{"Q01":"2","Q08":"1","Q13":"0","Q09":"1","Q12":"1","Q03":"3","Q07":"3","Q04":"2","Q11":"1","Q10":"1","Q06":"2","Q02":"3","Q05":"2"},"rt":309542,"item_order":[0,7,12,8,11,2,6,3,10,9,5,1,4],"radio_events":[17556,19936.00000000003,22358,25317.00000000003,28850,33897,37969,115098,288248,291725,297493.00000000006,301722,305303.00000000006,307253,308358],"key_events":[],"mouse_events":[17556,19936.00000000003,22358,25317.00000000003,28850,33897,37969,115098,288248,291725,297493.00000000006,301722,305303.00000000006,307253,308358,309536.00000000006],"straightlining":0.38461538461538464,"zigzagging":0.6666666666666666,"honeypot":0,"survey":"bisbas","trial_type":"survey-template","trial_index":3,"time_elapsed":459013,"internal_node_id":"0.0-3.0","task_version":"prescreen-v0.3","browser_interactions":0,"infrequency":0},{"responses":{"Q01":"2","Q02":"1","Q03":"2"},"rt":19565,"radio_events":[7627,13314,18620],"key_events":[],"mouse_events":[7627,13314,18620,19562],"survey":"map","page":1,"trial_type":"survey-map","trial_index":4,"time_elapsed":478583,"internal_node_id":"0.0-4.0","task_version":"prescreen-v0.3","browser_interactions":0},{"responses":{"Q04":"1","Q05":"2","Q06":"1"},"rt":20082,"radio_events":[5380,12701,19083],"key_events":[],"mouse_events":[5380,12701,18504,19083,20080],"survey":"map","page":2,"trial_type":"survey-map","trial_index":5,"time_elapsed":498668,"internal_node_id":"0.0-5.0","task_version":"prescreen-v0.3","browser_interactions":0},{"responses":{"Q07":"1","Q08":"4","Q09":"1"},"rt":22171,"radio_events":[8143.000000000058,14416,18561,21324],"key_events":[],"mouse_events":[8143.000000000058,14416,18561,20763,21324,22169.00000000006],"survey":"map","page":3,"trial_type":"survey-map","trial_index":6,"time_elapsed":520842,"internal_node_id":"0.0-6.0","task_version":"prescreen-v0.3","browser_interactions":0},{"responses":{"Q10":"1","Q11":"1","Q12":"3","Q13":"3","Q16":"0","Q14":"1","Q15":"1"},"rt":38694.99999999994,"radio_events":[4245.999999999942,6544.999999999942,13356.999999999942,18483.99999999994,21002.99999999994,22792.00000000006,26400.99999999994,33648.00000000006,37337.99999999994],"key_events":[],"mouse_events":[4245.999999999942,6544.999999999942,13356.999999999942,18483.99999999994,21002.99999999994,22792.00000000006,26400.99999999994,33648.00000000006,37337.99999999994,38687.99999999994],"survey":"map","page":4,"trial_type":"survey-map","trial_index":7,"time_elapsed":559541,"internal_node_id":"0.0-7.0","task_version":"prescreen-v0.3","browser_interactions":0,"infrequency":0},{"view_history":[{"page_index":0,"viewing_time":2379},{"page_index":1,"viewing_time":4394}],"rt":6774,"trial_type":"instructions","trial_index":8,"time_elapsed":566317,"internal_node_id":"0.0-8.0","task_version":"prescreen-v0.3"},{"responses":{"01":"No","02":"No","03":"No","04":"No","05":"No","06":"No"},"rt":27027.999999999884,"item_order":[0,1,2,3,4,5],"radio_events":[12490,17317,21089.999999999884,22843.999999999884,24282.999999999884,26176.999999999884],"checkbox_events":[],"key_events":[],"mouse_events":[0,12490,17317,21089.999999999884,22843.999999999884,24282.999999999884,26176.999999999884,27021.999999999884],"honeypot":0,"survey":"mace","page":1,"trial_type":"survey-mace","trial_index":9,"time_elapsed":593350,"internal_node_id":"0.0-9.0","task_version":"prescreen-v0.3","browser_interactions":0},{"responses":{"01":"No","02":"No","03":"No","04":"No","05":"No","06":"No","07":"No","08":"No"},"rt":15956,"item_order":[0,1,2,3,4,5,6,7],"radio_events":[3330,6312,7661,8849,10214,12198,14293,15131],"checkbox_events":[],"key_events":[],"mouse_events":[3330,6312,7661,8849,10214,12198,14293,15131,15951],"honeypot":0,"survey":"mace","page":2,"trial_type":"survey-mace","trial_index":10,"time_elapsed":609311,"internal_node_id":"0.0-10.0","task_version":"prescreen-v0.3","browser_interactions":0},{"responses":{"01":"No","02":"No","03":"No","04":"No"},"rt":9577,"item_order":[0,1,2,3],"radio_events":[4453.000000000116,5737,7899,8817],"checkbox_events":[],"key_events":[],"mouse_events":[4453.000000000116,5737,7899,8817,9573.000000000116],"honeypot":0,"survey":"mace","page":3,"trial_type":"survey-mace","trial_index":11,"time_elapsed":618892,"internal_node_id":"0.0-11.0","task_version":"prescreen-v0.3","browser_interactions":0},{"responses":{"01":"No","02":"No"},"rt":4790,"item_order":[0,1],"radio_events":[2943,4025],"checkbox_events":[],"key_events":[],"mouse_events":[2943,4025,4788],"honeypot":0,"survey":"mace","page":4,"trial_type":"survey-mace","trial_index":12,"time_elapsed":623686,"internal_node_id":"0.0-12.0","task_version":"prescreen-v0.3","browser_interactions":0},{"responses":{"01":"No","02":"No","03":"No","04":"No","05":"No"},"rt":11235,"item_order":[0,1,2,3,4],"radio_events":[3673,5396,7146,8753,10142],"checkbox_events":[],"key_events":[],"mouse_events":[3673,5396,7146,8753,10142,11232],"honeypot":0,"survey":"mace","page":5,"trial_type":"survey-mace","trial_index":13,"time_elapsed":634928,"internal_node_id":"0.0-13.0","task_version":"prescreen-v0.3","browser_interactions":0},{"responses":{"01":"Yes","01_ages_14":"14","01_ages_15":"15","02":"Yes","02_ages_9":"9","02_ages_10":"10","02_ages_11":"11","02_ages_12":"12","02_ages_13":"13","02_ages_14":"14","02_ages_15":"15","03":"Yes","03_ages_9":"9","03_ages_10":"10","03_ages_11":"11","03_ages_12":"12","03_ages_13":"13","03_ages_14":"14","03_ages_15":"15","03_ages_16":"16","03_ages_17":"17","03_ages_18":"18","04":"Yes","04_ages_9":"9","04_ages_10":"10","04_ages_11":"11","04_ages_12":"12","04_ages_13":"13","04_ages_14":"14","04_ages_15":"15","04_ages_16":"16","04_ages_17":"17","04_ages_18":"18","05":"Yes","05_ages_16":"16"},"rt":70956,"item_order":[0,1,2,3,4],"radio_events":[7843,24616,25901.000000000116,43960,53910,64298,67469],"checkbox_events":[18091,19057,29826,30493,31143,33834.00000000012,34694,35403,36255,37133,41506,45505,46407,46952,47514,48082,49000,49805.00000000012,50382.00000000012,51065,51829.00000000012,55446,56007.00000000012,56487,57405,57983.00000000012,58535,59234,59755,60575,61218,69062],"key_events":[],"mouse_events":[7843,18091,19057,24616,25901.000000000116,29826,30493,31143,33834.00000000012,34694,35403,36255,37133,41506,43960,45505,46407,46952,47514,48082,49000,49805.00000000012,50382.00000000012,51065,51829.00000000012,53910,55446,56007.00000000012,56487,57405,57983.00000000012,58535,59234,59755,60575,61218,64298,67469,69062,70948],"honeypot":0,"survey":"mace","page":6,"trial_type":"survey-mace","trial_index":14,"time_elapsed":705893,"internal_node_id":"0.0-14.0","task_version":"prescreen-v0.3","browser_interactions":0},{"responses":{"01":"Yes","01_ages_16":"16","02":"Yes","02_ages_14":"14","02_ages_15":"15","02_ages_16":"16","02_ages_17":"17","03":"Yes","03_ages_16":"16","04":"Yes","04_ages_16":"16","05":"No","06":"Yes","06_ages_14":"14","06_ages_15":"15","06_ages_16":"16","07":"Yes","07_ages_14":"14","07_ages_15":"15","07_ages_16":"16"},"rt":36560,"item_order":[0,1,2,3,4,5,6],"radio_events":[3286,7293,14480,17285,23381,26764,32764],"checkbox_events":[4879,9953,10683,11253,11910,15683,19284,27844,28478,29698.000000000116,33868,34633,35064],"key_events":[],"mouse_events":[3286,4879,7293,9953,10683,11253,11910,14480,15683,17285,19284,23381,26764,27844,28478,28999,29698.000000000116,32764,33868,34633,35064,36551],"honeypot":0,"survey":"mace","page":7,"trial_type":"survey-mace","trial_index":15,"time_elapsed":742460,"internal_node_id":"0.0-15.0","task_version":"prescreen-v0.3","browser_interactions":0},{"responses":{"01":"No","02":"Yes","02_ages_1":"1","02_ages_2":"2","02_ages_3":"3","02_ages_4":"4","02_ages_5":"5","02_ages_6":"6","02_ages_7":"7","02_ages_8":"8","02_ages_9":"9","02_ages_10":"10","02_ages_11":"11","02_ages_12":"12","02_ages_13":"13","02_ages_14":"14","02_ages_15":"15","02_ages_16":"16","02_ages_17":"17","02_ages_18":"18","03":"No","04":"Yes","04_ages_1":"1","04_ages_2":"2","04_ages_3":"3","04_ages_4":"4","04_ages_5":"5","04_ages_6":"6","04_ages_7":"7","04_ages_8":"8","04_ages_9":"9","04_ages_10":"10","04_ages_11":"11","04_ages_12":"12","04_ages_13":"13","04_ages_14":"14","04_ages_15":"15","04_ages_16":"16","04_ages_17":"17","04_ages_18":"18"},"rt":53438,"item_order":[0,1,2,3],"radio_events":[14277,31113,36276.00000000012,38033],"checkbox_events":[18245,18829.000000000116,19383,20081,20658,21407,22398,23089,23764,24301,25033,25675.000000000116,26204.000000000116,27048,27651.000000000116,28261,29260,29894,39903,40554,41399,42041,42748,43317,44107,44911,45716,46293,46993,47601,48333,48967,49790,50481,51228.00000000012,52008],"key_events":[],"mouse_events":[14277,18245,18829.000000000116,19383,20081,20658,21407,22398,23089,23764,24301,25033,25675.000000000116,26204.000000000116,27048,27651.000000000116,28261,29260,29894,31113,36276.00000000012,38033,39903,40554,41399,42041,42748,43317,44107,44911,45716,46293,46993,47601,48333,48967,49790,50481,51228.00000000012,52008,53431],"honeypot":0,"survey":"mace","page":8,"trial_type":"survey-mace","trial_index":16,"time_elapsed":795904,"internal_node_id":"0.0-16.0","task_version":"prescreen-v0.3","browser_interactions":0},{"responses":{"01":"Yes","01_ages_1":"1","01_ages_2":"2","01_ages_3":"3","01_ages_4":"4","01_ages_5":"5","01_ages_6":"6","01_ages_7":"7","01_ages_8":"8","01_ages_9":"9","01_ages_10":"10","01_ages_11":"11","01_ages_12":"12","01_ages_13":"13","01_ages_14":"14","01_ages_15":"15","01_ages_16":"16","01_ages_17":"17","01_ages_18":"18","02":"Yes","02_ages_1":"1","02_ages_2":"2","02_ages_3":"3","02_ages_4":"4","02_ages_5":"5","02_ages_6":"6","02_ages_7":"7","02_ages_8":"8","02_ages_9":"9","02_ages_10":"10","02_ages_11":"11","02_ages_12":"12","02_ages_13":"13","02_ages_14":"14","02_ages_15":"15","02_ages_16":"16","02_ages_17":"17","02_ages_18":"18","03":"Yes","03_ages_1":"1","03_ages_2":"2","03_ages_3":"3","03_ages_4":"4","03_ages_5":"5","03_ages_6":"6","03_ages_7":"7","03_ages_8":"8","03_ages_9":"9","03_ages_10":"10","03_ages_11":"11","03_ages_12":"12","03_ages_13":"13","03_ages_14":"14","03_ages_15":"15","03_ages_16":"16","03_ages_17":"17","03_ages_18":"18","04":"Yes","04_ages_1":"1","04_ages_2":"2","04_ages_3":"3","04_ages_4":"4","04_ages_5":"5","04_ages_6":"6","04_ages_7":"7","04_ages_8":"8","04_ages_9":"9","04_ages_10":"10","04_ages_11":"11","04_ages_12":"12","04_ages_13":"13","04_ages_14":"14","04_ages_15":"15","04_ages_16":"16","04_ages_17":"17","04_ages_18":"18"},"rt":70564,"item_order":[0,1,2,3],"radio_events":[3123.0000000001164,22749,40976,55775],"checkbox_events":[8724.000000000116,9382,9984.000000000116,10553,11179,11862,12467,13439,14001,14886,15561.000000000116,16432,17041,17839,18334,19236,19855,20561.000000000116,24342,24984.000000000116,25636,26261,27220,27757,28465,29066,29781,30643,31480,32367,32968,33651,34285,35017,35692,36432,42718,43627,44408,44985,45765,46359.00000000012,47050,47611,48285,49034,49855,50530,51205.00000000012,52197,52741,53441,54327,54913,57239,58142,58930,59531,60450.00000000012,61345,62165,62881,63507,64239,64792,65663,66263,66971,67605,68289,69232,69842],"key_events":[],"mouse_events":[3123.0000000001164,7814,8724.000000000116,9382,9984.000000000116,10553,11179,11862,12467,13439,14001,14886,15561.000000000116,16432,17041,17839,18334,19236,19855,20561.000000000116,22749,24342,24984.000000000116,25636,26261,27220,27757,28465,29066,29781,30643,31480,32367,32968,33651,34285,35017,35692,36432,40976,42718,43627,44408,44985,45765,46359.00000000012,47050,47611,48285,49034,49855,50530,51205.00000000012,52197,52741,53441,54327,54913,55775,57239,58142,58930,59531,60450.00000000012,61345,62165,62881,63507,64239,64792,65663,66263,66971,67605,68289,69232,69842,70557],"honeypot":0,"survey":"mace","page":9,"trial_type":"survey-mace","trial_index":17,"time_elapsed":866477,"internal_node_id":"0.0-17.0","task_version":"prescreen-v0.3","browser_interactions":0},{"responses":{"01":"No","02":"No","03":"Yes","03_ages_14":"14","03_ages_15":"15","03_ages_16":"16","03_ages_17":"17","03_ages_18":"18","04":"Yes","04_ages_14":"14","05":"Yes","05_ages_14":"14","05_ages_15":"15","05_ages_16":"16","05_ages_17":"17","05_ages_18":"18","06":"Yes","06_ages_17":"17","07":"Yes","07_ages_1":"1","07_ages_2":"2","07_ages_3":"3","07_ages_4":"4","07_ages_5":"5","07_ages_6":"6","07_ages_7":"7","07_ages_8":"8","07_ages_9":"9","07_ages_10":"10","07_ages_11":"11","07_ages_12":"12","07_ages_13":"13","07_ages_14":"14","07_ages_15":"15","07_ages_16":"16","07_ages_17":"17","07_ages_18":"18","08":"Yes","08_ages_14":"14","08_ages_15":"15","08_ages_16":"16","08_ages_17":"17","08_ages_18":"18"},"rt":51863,"item_order":[0,1,2,3,4,5,6,7],"radio_events":[3369,4352,6345,14013,18525,24756,30380,45780],"checkbox_events":[8312.000000000116,8905,9425,10052.000000000116,10662,14784,20175,20672,21258,21891,22412,26282,31870,32405,32869,33332,33998,34722,35203,35934,36593,38097,38602,39438,40627,41227,41999.00000000012,42788.00000000012,43398.00000000012,43943,47603,48512,49048,50188,50903.00000000012],"key_events":[],"mouse_events":[3369,4352,6345,8312.000000000116,8905,9425,10052.000000000116,10662,14013,14784,18525,20175,20672,21258,21891,22412,24756,26282,30380,31870,32405,32869,33332,33998,34722,35203,35934,36593,38097,38602,39438,40081.00000000012,40627,41227,41999.00000000012,42788.00000000012,43398.00000000012,43943,45780,47603,48512,49048,50188,50903.00000000012,51854],"honeypot":0,"survey":"mace","page":10,"trial_type":"survey-mace","trial_index":18,"time_elapsed":918346,"internal_node_id":"0.0-18.0","task_version":"prescreen-v0.3","browser_interactions":0,"instructed":0},{"rt":5584.000000000116,"trial_type":"mental-health-alert","trial_index":19,"time_elapsed":923935,"internal_node_id":"0.0-19.0","task_version":"prescreen-v0.3","interactions":"[]"}]