[{"view_history":[{"page_index":0,"viewing_time":5951},{"page_index":1,"viewing_time":3204},{"page_index":2,"viewing_time":2467},{"page_index":3,"viewing_time":1595}],"rt":13218,"trial_type":"instructions","trial_index":0,"time_elapsed":13231,"internal_node_id":"0.0-0.0","task_version":"prescreen-v0.3"},{"rt":19323,"responses":{"age":"46","gender-categorical":"Male","gender-free-response":"","ethnicity":"Not Hispanic or Latino","race":["White"],"education":"Master degree or higher"},"trial_type":"survey-demo","trial_index":1,"time_elapsed":32584,"internal_node_id":"0.0-1.0","task_version":"prescreen-v0.3"},{"responses":{"Q04":"0","Q02":"0","Q09":"0","Q21":"3","Q11":"0","Q07":"1","Q01":"0","Q17":"0","Q13":"0","Q10":"0","Q14":"2","Q12":"0","Q05":"0","Q03":"0","Q06":"2","Q16":"0","Q15":"0","Q08":"0","Q19":"0","Q18":"0","Q20":"0"},"rt":143055,"item_order":[3,1,8,20,10,6,0,16,12,9,13,11,4,2,5,15,14,7,18,17,19],"radio_events":[45538,47798,53278,59595,62262,69604,71884,74361,75332,83173,85191,93448,94732,106948,110844,114881,125108,127238,129784,135266,140760],"key_events":[],"mouse_events":[45538,47798,53278,59595,62262,69604,71884,74361,75332,76271,83173,85191,90592,92177,93448,94732,104344,106948,110844,114881,125108,127238,129784,135266,139773,140760,143054],"straightlining":0.8095238095238095,"zigzagging":0.2,"honeypot":0,"survey":"sns","trial_type":"survey-template","trial_index":2,"time_elapsed":175684,"internal_node_id":"0.0-2.0","task_version":"prescreen-v0.3","browser_interactions":2,"infrequency":0},{"responses":{"Q07":"3","Q03":"1","Q02":"1","Q01":"0","Q10":"1","Q06":"3","Q12":"1","Q09":"0","Q08":"0","Q11":"0","Q13":"0","Q04":"0","Q05":"3"},"rt":68338,"item_order":[6,2,1,0,9,5,11,8,7,10,12,3,4],"radio_events":[3922,8903,21238,23695,29389,32890,36406,54832,55632,56975,60924,63016,67279],"key_events":[],"mouse_events":[3922,8903,21238,23695,29389,31969,32890,36406,51118,52939,54832,55632,56975,60924,63016,65585,66695,67279,68337],"straightlining":0.46153846153846156,"zigzagging":0.3333333333333333,"honeypot":0,"survey":"bisbas","trial_type":"survey-template","trial_index":3,"time_elapsed":244055,"internal_node_id":"0.0-3.0","task_version":"prescreen-v0.3","browser_interactions":0,"infrequency":0},{"responses":{"Q01":"4","Q02":"4","Q03":"4"},"rt":44346,"radio_events":[12840,19310,24647,29478,34654,35749,42897],"key_events":[],"mouse_events":[12840,19310,24647,29478,34654,35749,42897,44346],"survey":"map","page":1,"trial_type":"survey-map","trial_index":4,"time_elapsed":288421,"internal_node_id":"0.0-4.0","task_version":"prescreen-v0.3","browser_interactions":0},{"responses":{"Q04":"4","Q05":"2","Q06":"2"},"rt":14854,"radio_events":[6283,11361,13487],"key_events":[],"mouse_events":[6283,11361,13487,14853],"survey":"map","page":2,"trial_type":"survey-map","trial_index":5,"time_elapsed":303289,"internal_node_id":"0.0-5.0","task_version":"prescreen-v0.3","browser_interactions":0},{"responses":{"Q07":"4","Q08":"4","Q09":"4"},"rt":24592,"radio_events":[8559,20698,23278],"key_events":[],"mouse_events":[8559,20698,23278,24592],"survey":"map","page":3,"trial_type":"survey-map","trial_index":6,"time_elapsed":327895,"internal_node_id":"0.0-6.0","task_version":"prescreen-v0.3","browser_interactions":2},{"responses":{"Q10":"2","Q11":"3","Q12":"4","Q13":"3","Q16":"0","Q14":"4","Q15":"4"},"rt":164979,"radio_events":[117055,122735,125738,130887,134600,142085,146988,150530],"key_events":[],"mouse_events":[113881,117055,122735,125738,130887,134600,142085,145891,146988,150530,164978],"survey":"map","page":4,"trial_type":"survey-map","trial_index":7,"time_elapsed":492887,"internal_node_id":"0.0-7.0","task_version":"prescreen-v0.3","browser_interactions":4,"infrequency":0},{"view_history":[{"page_index":0,"viewing_time":4497},{"page_index":1,"viewing_time":5371}],"rt":9868,"trial_type":"instructions","trial_index":8,"time_elapsed":502761,"internal_node_id":"0.0-8.0","task_version":"prescreen-v0.3"},{"responses":{"01":"No","02":"No","03":"No","04":"No","05":"No","06":"No"},"rt":40529,"item_order":[0,1,2,3,4,5],"radio_events":[21699,23214,25824,27565,30887,39059],"checkbox_events":[],"key_events":[],"mouse_events":[0,21699,23214,25824,27565,30887,39059,40529],"honeypot":0,"survey":"mace","page":1,"trial_type":"survey-mace","trial_index":9,"time_elapsed":543327,"internal_node_id":"0.0-9.0","task_version":"prescreen-v0.3","browser_interactions":0},{"responses":{"01":"No","02":"No","03":"No","04":"No","05":"No","06":"No","07":"No","08":"No"},"rt":33158,"item_order":[0,1,2,3,4,5,6,7],"radio_events":[4352,5985,10527,14693,19922,23467,29103,32422],"checkbox_events":[],"key_events":[],"mouse_events":[4352,5985,10527,14693,19922,23467,29103,32422,33156],"honeypot":0,"survey":"mace","page":2,"trial_type":"survey-mace","trial_index":10,"time_elapsed":576514,"internal_node_id":"0.0-10.0","task_version":"prescreen-v0.3","browser_interactions":0},{"responses":{"01":"No","02":"No","03":"No","04":"No"},"rt":18269,"item_order":[0,1,2,3],"radio_events":[9721,13950,15862,17364],"checkbox_events":[],"key_events":[],"mouse_events":[9721,13950,15862,17364,18268],"honeypot":0,"survey":"mace","page":3,"trial_type":"survey-mace","trial_index":11,"time_elapsed":594808,"internal_node_id":"0.0-11.0","task_version":"prescreen-v0.3","browser_interactions":0},{"responses":{"01":"No","02":"No"},"rt":5678,"item_order":[0,1],"radio_events":[2499,4918],"checkbox_events":[],"key_events":[],"mouse_events":[2499,3255,4918,5678],"honeypot":0,"survey":"mace","page":4,"trial_type":"survey-mace","trial_index":12,"time_elapsed":600505,"internal_node_id":"0.0-12.0","task_version":"prescreen-v0.3","browser_interactions":0},{"responses":{"01":"No","02":"No","03":"No","04":"No","05":"No"},"rt":29281,"item_order":[0,1,2,3,4],"radio_events":[17806,20265,24652,25992,27677],"checkbox_events":[],"key_events":[],"mouse_events":[17806,20265,21441,24652,25992,27677,29281],"honeypot":0,"survey":"mace","page":5,"trial_type":"survey-mace","trial_index":13,"time_elapsed":629813,"internal_node_id":"0.0-13.0","task_version":"prescreen-v0.3","browser_interactions":0},{"responses":{"01":"No","02":"No","03":"No","04":"No","05":"No"},"rt":26511,"item_order":[0,1,2,3,4],"radio_events":[9751,10800,20462,22149,24468],"checkbox_events":[],"key_events":[],"mouse_events":[7716,8733,9751,10800,20462,22149,24468,26511],"honeypot":0,"survey":"mace","page":6,"trial_type":"survey-mace","trial_index":14,"time_elapsed":656349,"internal_node_id":"0.0-14.0","task_version":"prescreen-v0.3","browser_interactions":0},{"responses":{"01":"No","02":"No","03":"No","04":"No","05":"No","06":"No","07":"No"},"rt":21175,"item_order":[0,1,2,3,4,5,6],"radio_events":[3352,5757,7390,9268,10986,13052,14553],"checkbox_events":[],"key_events":[],"mouse_events":[3352,5757,7390,9268,10986,13052,14553,21174],"honeypot":0,"survey":"mace","page":7,"trial_type":"survey-mace","trial_index":15,"time_elapsed":677557,"internal_node_id":"0.0-15.0","task_version":"prescreen-v0.3","browser_interactions":0},{"responses":{"01":"No","02":"No","03":"No","04":"No"},"rt":261219,"item_order":[0,1,2,3],"radio_events":[254230,256035,258363,260300],"checkbox_events":[],"key_events":[],"mouse_events":[254230,256035,258363,260300,261219],"honeypot":0,"survey":"mace","page":8,"trial_type":"survey-mace","trial_index":16,"time_elapsed":938800,"internal_node_id":"0.0-16.0","task_version":"prescreen-v0.3","browser_interactions":6},{"responses":{"01":"Yes","01_ages_13":"13","01_ages_14":"14","01_ages_15":"15","02":"Yes","02_ages_17":"17","02_ages_18":"18","03":"Yes","03_ages_1":"1","03_ages_2":"2","03_ages_3":"3","03_ages_4":"4","03_ages_5":"5","03_ages_6":"6","03_ages_7":"7","04":"Yes","04_ages_11":"11","04_ages_15":"15","04_ages_17":"17"},"rt":66870,"item_order":[0,1,2,3],"radio_events":[4628,27789,39465,52303],"checkbox_events":[21539,22694,23903,29886,30737,41475,42420,43067,43625,45312,46534,47252,55395,57931,58797,59514,60120,64100,65457],"key_events":[],"mouse_events":[4628,21539,22694,23903,27789,29886,30737,39465,41475,42420,43067,43625,44075,44468,45312,45865,46534,47252,52303,55395,56347,57931,58797,59514,60120,62781,64100,65457,66870],"honeypot":0,"survey":"mace","page":9,"trial_type":"survey-mace","trial_index":17,"time_elapsed":1005714,"internal_node_id":"0.0-17.0","task_version":"prescreen-v0.3","browser_interactions":0},{"responses":{"01":"No","02":"No","03":"No","04":"No","05":"No","06":"Yes","06_ages_17":"17","07":"No","08":"Yes","08_ages_12":"12","08_ages_13":"13","08_ages_14":"14","08_ages_15":"15","08_ages_16":"16","08_ages_17":"17","08_ages_18":"18"},"rt":84578,"item_order":[0,1,2,3,4,5,6,7],"radio_events":[3746,4882,7185,8665,11954,15996,32368,34971,41997,67887],"checkbox_events":[18242,73776,74573,75267,75724,76284,76883,77670],"key_events":[],"mouse_events":[3746,4882,5448,7185,8665,11954,15996,18242,32368,34971,41997,67887,73776,74573,75267,75724,76284,76883,77670,84578],"honeypot":0,"survey":"mace","page":10,"trial_type":"survey-mace","trial_index":18,"time_elapsed":1090330,"internal_node_id":"0.0-18.0","task_version":"prescreen-v0.3","browser_interactions":2,"instructed":0},{"rt":5878,"trial_type":"mental-health-alert","trial_index":19,"time_elapsed":1096226,"internal_node_id":"0.0-19.0","task_version":"prescreen-v0.3","interactions":"[{\"event\":\"focus\",\"trial\":0,\"time\":10},{\"event\":\"blur\",\"trial\":2,\"time\":130437},{\"event\":\"focus\",\"trial\":2,\"time\":136908},{\"event\":\"blur\",\"trial\":6,\"time\":320186},{\"event\":\"focus\",\"trial\":6,\"time\":320559},{\"event\":\"blur\",\"trial\":7,\"time\":330352},{\"event\":\"focus\",\"trial\":7,\"time\":433708},{\"event\":\"blur\",\"trial\":7,\"time\":479483},{\"event\":\"focus\",\"trial\":7,\"time\":481510},{\"event\":\"blur\",\"trial\":16,\"time\":680318},{\"event\":\"focus\",\"trial\":16,\"time\":684324},{\"event\":\"blur\",\"trial\":16,\"time\":685402},{\"event\":\"focus\",\"trial\":16,\"time\":687208},{\"event\":\"blur\",\"trial\":16,\"time\":689907},{\"event\":\"focus\",\"trial\":16,\"time\":924615},{\"event\":\"blur\",\"trial\":18,\"time\":1064171},{\"event\":\"focus\",\"trial\":18,\"time\":1065486}]"}]