[{"view_history":[{"page_index":0,"viewing_time":2978},{"page_index":1,"viewing_time":3164},{"page_index":2,"viewing_time":3389},{"page_index":3,"viewing_time":1171}],"rt":10702,"trial_type":"instructions","trial_index":0,"time_elapsed":10704,"internal_node_id":"0.0-0.0","task_version":"prescreen-v0.3"},{"rt":10876,"responses":{"age":"32","gender-categorical":"Male","gender-free-response":"","ethnicity":"Not Hispanic or Latino","race":["White"],"education":"Some college"},"trial_type":"survey-demo","trial_index":1,"time_elapsed":21587,"internal_node_id":"0.0-1.0","task_version":"prescreen-v0.3"},{"responses":{"Q08":"3","Q11":"2","Q18":"3","Q09":"2","Q01":"3","Q12":"2","Q21":"3","Q02":"2","Q03":"2","Q04":"1","Q20":"3","Q10":"1","Q15":"2","Q06":"0","Q17":"1","Q14":"3","Q16":"2","Q13":"3","Q19":"0","Q07":"0","Q05":"1"},"rt":91638,"item_order":[7,10,17,8,0,11,20,1,2,3,19,9,14,5,16,13,15,12,18,6,4],"radio_events":[7342,13050,15290,18010,19665,27088,28030,34171,36343,40498,42256,48351,52362,59716,62636,67739,71052,73715,79803,84172,90899],"key_events":[],"mouse_events":[7342,13050,15290,18010,19665,27088,28030,34171,36343,39965,40498,42256,48351,52362,59012,59716,62636,67739,70537,71052,73715,79803,84172,90899,91638],"straightlining":0.3333333333333333,"zigzagging":0.7,"honeypot":0,"survey":"sns","trial_type":"survey-template","trial_index":2,"time_elapsed":113230,"internal_node_id":"0.0-2.0","task_version":"prescreen-v0.3","browser_interactions":0,"infrequency":0},{"responses":{"Q09":"1","Q07":"3","Q04":"3","Q08":"1","Q02":"3","Q13":"0","Q06":"2","Q12":"0","Q10":"1","Q03":"3","Q01":"3","Q05":"1","Q11":"0"},"rt":61124,"item_order":[8,6,3,7,1,12,5,11,9,2,0,4,10],"radio_events":[7296,12313,19801,27432,28133,30040,37710,42204,43769,46019,50399,56368,60424],"key_events":[],"mouse_events":[7296,12313,19801,27432,28133,30040,37710,42204,43769,46019,50399,56368,60424,61124],"straightlining":0.38461538461538464,"zigzagging":0.25,"honeypot":0,"survey":"bisbas","trial_type":"survey-template","trial_index":3,"time_elapsed":174357,"internal_node_id":"0.0-3.0","task_version":"prescreen-v0.3","browser_interactions":0,"infrequency":0},{"responses":{"Q01":"1","Q02":"1","Q03":"2"},"rt":27445,"radio_events":[9744,21769,26866],"key_events":[],"mouse_events":[9744,21769,26866,27445],"survey":"map","page":1,"trial_type":"survey-map","trial_index":4,"time_elapsed":201806,"internal_node_id":"0.0-4.0","task_version":"prescreen-v0.3","browser_interactions":0},{"responses":{"Q04":"3","Q05":"2","Q06":"2"},"rt":18390,"radio_events":[6674,12386,16636],"key_events":[],"mouse_events":[6674,12386,16636,18390],"survey":"map","page":2,"trial_type":"survey-map","trial_index":5,"time_elapsed":220199,"internal_node_id":"0.0-5.0","task_version":"prescreen-v0.3","browser_interactions":0},{"responses":{"Q07":"1","Q08":"3","Q09":"3"},"rt":41181,"radio_events":[16569,18970,35384,40195],"key_events":[],"mouse_events":[16569,18970,35384,40195,41181],"survey":"map","page":3,"trial_type":"survey-map","trial_index":6,"time_elapsed":261382,"internal_node_id":"0.0-6.0","task_version":"prescreen-v0.3","browser_interactions":0},{"responses":{"Q10":"1","Q11":"1","Q12":"2","Q13":"2","Q16":"0","Q14":"2","Q15":"1"},"rt":45219,"radio_events":[8449,12146,16295,21355,27875,31357,40957,44529],"key_events":[],"mouse_events":[8449,12146,16295,21355,27875,31357,40957,44529,45219],"survey":"map","page":4,"trial_type":"survey-map","trial_index":7,"time_elapsed":306603,"internal_node_id":"0.0-7.0","task_version":"prescreen-v0.3","browser_interactions":0,"infrequency":0},{"view_history":[{"page_index":0,"viewing_time":2636},{"page_index":1,"viewing_time":3723}],"rt":6359,"trial_type":"instructions","trial_index":8,"time_elapsed":312963,"internal_node_id":"0.0-8.0","task_version":"prescreen-v0.3"},{"responses":{"01":"No","02":"Yes","02_ages_7":"7","02_ages_8":"8","02_ages_9":"9","02_ages_10":"10","02_ages_11":"11","02_ages_12":"12","02_ages_13":"13","02_ages_14":"14","02_ages_15":"15","02_ages_16":"16","02_ages_17":"17","02_ages_18":"18","03":"Yes","03_ages_4":"4","03_ages_5":"5","03_ages_6":"6","03_ages_7":"7","03_ages_8":"8","03_ages_9":"9","03_ages_10":"10","04":"No","05":"No","06":"Yes","06_ages_5":"5","06_ages_6":"6","06_ages_7":"7","06_ages_8":"8","06_ages_9":"9"},"rt":70468,"item_order":[0,1,2,3,4,5],"radio_events":[14418,16543,33066,53002,55110,61572],"checkbox_events":[25389,25939,26420,26956,27310,28185,28584,28919,29316,29760,30051,30453,39146,39602,40083,41289,41760,42609,43681,65235,65656,66033,66562,67015],"key_events":[],"mouse_events":[0,14418,16543,25389,25939,26420,26956,27310,27649,28185,28584,28919,29316,29760,30051,30453,33066,39146,39602,40083,41289,41760,42609,43681,53002,55110,61572,65235,65656,66033,66562,67015,70467],"honeypot":0,"survey":"mace","page":1,"trial_type":"survey-mace","trial_index":9,"time_elapsed":383439,"internal_node_id":"0.0-9.0","task_version":"prescreen-v0.3","browser_interactions":0},{"responses":{"01":"Yes","01_ages_5":"5","01_ages_6":"6","02":"No","03":"Yes","03_ages_5":"5","03_ages_6":"6","03_ages_7":"7","03_ages_8":"8","03_ages_9":"9","04":"No","05":"Yes","05_ages_5":"5","05_ages_6":"6","06":"No","07":"No","08":"No"},"rt":38942,"item_order":[0,1,2,3,4,5,6,7],"radio_events":[4608,15186,16980,24568,27013,30569,32174,37813],"checkbox_events":[7290,8628,19664,20027,20379,20769,21226,28336,28604],"key_events":[],"mouse_events":[4608,7290,8628,15186,16980,19664,20027,20379,20769,21226,24568,27013,28336,28604,30569,32174,37813,38942],"honeypot":0,"survey":"mace","page":2,"trial_type":"survey-mace","trial_index":10,"time_elapsed":422388,"internal_node_id":"0.0-10.0","task_version":"prescreen-v0.3","browser_interactions":0},{"responses":{"01":"Yes","01_ages_4":"4","01_ages_5":"5","01_ages_6":"6","01_ages_7":"7","02":"No","03":"No","04":"No"},"rt":16458,"item_order":[0,1,2,3],"radio_events":[7488,13205,14853,15910],"checkbox_events":[8589,8902,9154,9955],"key_events":[],"mouse_events":[7488,8589,8902,9154,9420,9955,13205,14853,15910,16458],"honeypot":0,"survey":"mace","page":3,"trial_type":"survey-mace","trial_index":11,"time_elapsed":438850,"internal_node_id":"0.0-11.0","task_version":"prescreen-v0.3","browser_interactions":0},{"responses":{"01":"Yes","01_ages_7":"7","02":"No"},"rt":15682,"item_order":[0,1],"radio_events":[3461,14808],"checkbox_events":[5116,5424,12296],"key_events":[],"mouse_events":[3461,5116,5424,12296,14808,15682],"honeypot":0,"survey":"mace","page":4,"trial_type":"survey-mace","trial_index":12,"time_elapsed":454537,"internal_node_id":"0.0-12.0","task_version":"prescreen-v0.3","browser_interactions":0},{"responses":{"01":"No","02":"No","03":"No","04":"Yes","04_ages_9":"9","05":"Yes","05_ages_9":"9"},"rt":32250,"item_order":[0,1,2,3,4],"radio_events":[10819,17570,20584,22784,29951],"checkbox_events":[25685,30674],"key_events":[],"mouse_events":[10819,17570,20584,22784,25685,29951,30674,32250],"honeypot":0,"survey":"mace","page":5,"trial_type":"survey-mace","trial_index":13,"time_elapsed":486792,"internal_node_id":"0.0-13.0","task_version":"prescreen-v0.3","browser_interactions":0},{"responses":{"01":"Yes","01_ages_4":"4","01_ages_5":"5","01_ages_6":"6","01_ages_7":"7","01_ages_8":"8","01_ages_9":"9","01_ages_10":"10","01_ages_11":"11","01_ages_12":"12","01_ages_13":"13","01_ages_14":"14","01_ages_15":"15","01_ages_16":"16","01_ages_17":"17","02":"Yes","02_ages_4":"4","02_ages_5":"5","02_ages_6":"6","02_ages_7":"7","02_ages_8":"8","02_ages_9":"9","02_ages_10":"10","02_ages_11":"11","02_ages_12":"12","02_ages_13":"13","02_ages_14":"14","02_ages_15":"15","02_ages_16":"16","02_ages_17":"17","03":"Yes","03_ages_16":"16","03_ages_17":"17","04":"Yes","04_ages_16":"16","04_ages_17":"17","05":"Yes","05_ages_10":"10","05_ages_11":"11","05_ages_12":"12","05_ages_13":"13","05_ages_14":"14"},"rt":61272,"item_order":[0,1,2,3,4],"radio_events":[7036,24718,32710,40856,44361],"checkbox_events":[11660,12414,12658,12975,13304,13702,14063,14371,14872,15454,18862,19228,19642,21108,25920,26203,26517,26879,27186,27497,27976,28321,28596,28909,29269,29580,29978,30364,37704,38047,41503,41790,53261,54034,54765,55081,55553,57939,60332],"key_events":[],"mouse_events":[7036,11660,11954,12414,12658,12975,13304,13702,14063,14371,14872,15454,18862,19228,19642,21108,24718,25920,26203,26517,26879,27186,27497,27976,28321,28596,28909,29269,29580,29978,30364,32710,37704,38047,40856,41503,41790,44361,53261,54034,54395,54765,55081,55553,57939,60332,61271],"honeypot":0,"survey":"mace","page":6,"trial_type":"survey-mace","trial_index":14,"time_elapsed":548071,"internal_node_id":"0.0-14.0","task_version":"prescreen-v0.3","browser_interactions":0},{"responses":{"01":"Yes","01_ages_10":"10","01_ages_11":"11","02":"Yes","02_ages_10":"10","02_ages_11":"11","03":"Yes","03_ages_7":"7","03_ages_8":"8","03_ages_9":"9","03_ages_10":"10","03_ages_11":"11","03_ages_12":"12","03_ages_13":"13","03_ages_14":"14","04":"Yes","04_ages_10":"10","04_ages_11":"11","04_ages_12":"12","04_ages_13":"13","04_ages_14":"14","05":"Yes","05_ages_15":"15","06":"No","07":"Yes","07_ages_9":"9","07_ages_10":"10","07_ages_11":"11"},"rt":57891,"item_order":[0,1,2,3,4,5,6],"radio_events":[4651,8475,10956,27147,35865,43005,51596],"checkbox_events":[6086,6387,9002,9290,12826,13206,13767,14249,14598,14877,15176,15605,15937,20698,28036,28324,28744,29164,29694,39015,53121,53592,57191],"key_events":[],"mouse_events":[4651,6086,6387,8475,9002,9290,10956,12826,13206,13767,14249,14598,14877,15176,15605,15937,20698,27147,28036,28324,28744,29164,29694,35865,39015,43005,51596,53121,53592,57191,57891],"honeypot":0,"survey":"mace","page":7,"trial_type":"survey-mace","trial_index":15,"time_elapsed":605969,"internal_node_id":"0.0-15.0","task_version":"prescreen-v0.3","browser_interactions":0},{"responses":{"01":"Yes","01_ages_8":"8","01_ages_9":"9","01_ages_10":"10","01_ages_11":"11","01_ages_12":"12","01_ages_13":"13","01_ages_14":"14","01_ages_15":"15","01_ages_16":"16","01_ages_17":"17","01_ages_18":"18","02":"Yes","02_ages_6":"6","02_ages_7":"7","02_ages_8":"8","02_ages_9":"9","02_ages_10":"10","02_ages_11":"11","02_ages_12":"12","02_ages_13":"13","02_ages_14":"14","02_ages_15":"15","02_ages_16":"16","02_ages_17":"17","02_ages_18":"18","03":"No","04":"Yes","04_ages_6":"6","04_ages_7":"7","04_ages_8":"8","04_ages_9":"9","04_ages_10":"10","04_ages_11":"11","04_ages_12":"12","04_ages_13":"13","04_ages_14":"14"},"rt":63502,"item_order":[0,1,2,3],"radio_events":[17809,30057,47528,55236],"checkbox_events":[25320,25635,25994,26369,26859,27172,27495,27938,28226,28748,29223,37324,37670,38599,38886,39167,39456,40065,40330,40669,41129,41440,41846,42210,56759,57035,57347,57757,58197,58477,58853,59185,59475],"key_events":[],"mouse_events":[17809,25320,25635,25994,26369,26859,27172,27495,27938,28226,28748,29223,30057,37324,37670,37980,38599,38886,39167,39456,39741,40065,40330,40669,41129,41440,41846,42210,47528,55236,56759,57035,57347,57757,58197,58477,58853,59185,59475,63502],"honeypot":0,"survey":"mace","page":8,"trial_type":"survey-mace","trial_index":16,"time_elapsed":669478,"internal_node_id":"0.0-16.0","task_version":"prescreen-v0.3","browser_interactions":0},{"responses":{"01":"Yes","01_ages_1":"1","01_ages_2":"2","01_ages_3":"3","01_ages_4":"4","01_ages_5":"5","01_ages_6":"6","01_ages_7":"7","01_ages_8":"8","01_ages_9":"9","01_ages_10":"10","01_ages_11":"11","01_ages_12":"12","01_ages_13":"13","01_ages_14":"14","01_ages_15":"15","01_ages_16":"16","01_ages_17":"17","01_ages_18":"18","02":"Yes","02_ages_1":"1","02_ages_2":"2","02_ages_3":"3","02_ages_4":"4","02_ages_5":"5","02_ages_6":"6","02_ages_7":"7","02_ages_8":"8","02_ages_9":"9","02_ages_10":"10","02_ages_11":"11","02_ages_12":"12","02_ages_13":"13","02_ages_14":"14","02_ages_15":"15","02_ages_16":"16","02_ages_17":"17","02_ages_18":"18","03":"Yes","03_ages_1":"1","03_ages_2":"2","03_ages_3":"3","03_ages_4":"4","03_ages_5":"5","03_ages_6":"6","03_ages_7":"7","03_ages_8":"8","03_ages_9":"9","03_ages_10":"10","03_ages_11":"11","03_ages_12":"12","03_ages_13":"13","03_ages_14":"14","03_ages_15":"15","03_ages_16":"16","03_ages_17":"17","03_ages_18":"18","04":"No"},"rt":45313,"item_order":[0,1,2,3],"radio_events":[4689,18906,31643,44161],"checkbox_events":[6450,6722,7037,7337,7964,8291,8571,8853,9471,10151,10474,13293,13734,14023,14405,15296,15657,16088,20208,21727,22278,22532,23241,23863,24245,24814,25105,25444,25746,26425,26718,27026,27353,27727,28130,28853,29325,29770,32337,32614,33034,33386,33736,34049,34383,34741,35069,35416,35769,36074,36537,36929,37281,37617,38230,38628],"key_events":[],"mouse_events":[4369,4689,6450,6722,7037,7337,7675,7964,8291,8571,8853,9125,9471,9860,10151,10474,13293,13734,14023,14405,15296,15657,16088,18906,20208,21727,22278,22532,22883,23241,23528,23863,24245,24552,24814,25105,25444,25746,26049,26425,26718,27026,27353,27727,28130,28853,29325,29770,31643,32337,32614,33034,33386,33736,34049,34383,34741,35069,35416,35769,36074,36537,36929,37281,37617,38230,38628,44161,45313],"honeypot":0,"survey":"mace","page":9,"trial_type":"survey-mace","trial_index":17,"time_elapsed":714798,"internal_node_id":"0.0-17.0","task_version":"prescreen-v0.3","browser_interactions":0},{"responses":{"01":"No","02":"No","03":"No","03_ages_6":"6","03_ages_7":"7","03_ages_8":"8","03_ages_9":"9","03_ages_10":"10","03_ages_11":"11","03_ages_12":"12","03_ages_13":"13","03_ages_14":"14","04":"Yes","04_ages_9":"9","04_ages_10":"10","04_ages_11":"11","04_ages_12":"12","04_ages_13":"13","05":"Yes","05_ages_1":"1","05_ages_2":"2","05_ages_3":"3","05_ages_4":"4","05_ages_5":"5","05_ages_6":"6","05_ages_7":"7","05_ages_8":"8","05_ages_9":"9","05_ages_10":"10","05_ages_11":"11","05_ages_12":"12","05_ages_13":"13","05_ages_14":"14","05_ages_15":"15","05_ages_16":"16","05_ages_17":"17","05_ages_18":"18","06":"Yes","06_ages_17":"17","07":"Yes","07_ages_1":"1","07_ages_2":"2","07_ages_3":"3","07_ages_4":"4","07_ages_5":"5","07_ages_6":"6","07_ages_7":"7","07_ages_8":"8","07_ages_9":"9","07_ages_10":"10","07_ages_11":"11","07_ages_12":"12","07_ages_13":"13","07_ages_14":"14","07_ages_15":"15","07_ages_16":"16","07_ages_17":"17","07_ages_18":"18","08":"No"},"rt":75410,"item_order":[0,1,2,3,4,5,6,7],"radio_events":[12152,14225,16431,26832,30550,41980,52541,57112,59422,75060],"checkbox_events":[20234,20580,21361,21641,21986,22256,23071,23535,23937,31960,32278,33333,33834,34512,35039,37438,43694,43987,44305,44621,44888,45715,45961,46287,46929,47316,47760,48053,48413,48718,48972,49236,49567,49829,54051,61390,61714,62054,62445,62806,63615,63905,64196,64504,64845,65174,65531,65801,66120,66447,66769,67142,67495],"key_events":[],"mouse_events":[12152,14225,16431,20234,20580,21361,21641,21986,22256,23071,23535,23937,26832,30550,31960,32278,33333,33834,34512,35039,37438,41980,42657,43694,43987,44305,44621,44888,45715,45961,46287,46581,46929,47316,47760,48053,48413,48718,48972,49236,49567,49829,52541,54051,57112,59422,61390,61714,62054,62445,62806,63234,63615,63905,64196,64504,64845,65174,65531,65801,66120,66447,66769,67142,67495,75060,75410],"honeypot":0,"survey":"mace","page":10,"trial_type":"survey-mace","trial_index":18,"time_elapsed":790214,"internal_node_id":"0.0-18.0","task_version":"prescreen-v0.3","browser_interactions":0,"instructed":0},{"rt":12337,"trial_type":"mental-health-alert","trial_index":19,"time_elapsed":802553,"internal_node_id":"0.0-19.0","task_version":"prescreen-v0.3","interactions":"[{\"event\":\"focus\",\"trial\":0,\"time\":0}]"}]