[{"view_history":[{"page_index":0,"viewing_time":4011.800000000745},{"page_index":1,"viewing_time":4464.5999999996275},{"page_index":2,"viewing_time":3247.300000000745},{"page_index":3,"viewing_time":1561.0999999996275}],"rt":13288.599999999627,"trial_type":"instructions","trial_index":0,"time_elapsed":13312,"internal_node_id":"0.0-0.0","task_version":"prescreen-v0.3"},{"rt":27750.799999998882,"responses":{"age":"19","gender-categorical":"Female","gender-free-response":"","ethnicity":"Not Hispanic or Latino","race":["White"],"education":"High school"},"trial_type":"survey-demo","trial_index":1,"time_elapsed":41084,"internal_node_id":"0.0-1.0","task_version":"prescreen-v0.3"},{"responses":{"Q04":"0","Q18":"2","Q05":"2","Q13":"3","Q21":"3","Q06":"1","Q10":"2","Q03":"0","Q01":"1","Q07":"0","Q11":"2","Q17":"1","Q02":"2","Q12":"2","Q20":"3","Q19":"3","Q15":"2","Q16":"2","Q08":"2","Q09":"2","Q14":"2"},"rt":119563.59999999963,"item_order":[3,17,4,12,20,5,9,2,0,6,10,16,1,11,19,18,14,15,7,8,13],"radio_events":[12394.700000001118,18921.400000000373,27057.700000001118,31348.400000000373,34410.40000000037,42122.20000000112,47333.800000000745,54916.59999999963,58337,66102.70000000112,70668.20000000112,73821.20000000112,79179.5,82354,89103.70000000112,95667,99005.5,102970.70000000112,111368.5,115098,118244.30000000075],"key_events":[],"mouse_events":[920,12394.700000001118,18921.400000000373,27057.700000001118,31348.400000000373,34410.40000000037,42122.20000000112,47333.800000000745,54916.59999999963,58337,66102.70000000112,70668.20000000112,73821.20000000112,79179.5,82354,89103.70000000112,95667,99005.5,102970.70000000112,111368.5,115098,118244.30000000075,119550.5],"straightlining":0.5238095238095238,"zigzagging":0.4,"honeypot":0,"survey":"sns","trial_type":"survey-template","trial_index":2,"time_elapsed":160668,"internal_node_id":"0.0-2.0","task_version":"prescreen-v0.3","browser_interactions":0,"infrequency":0},{"responses":{"Q11":"2","Q05":"3","Q02":"3","Q07":"2","Q08":"3","Q06":"3","Q13":"0","Q09":"1","Q03":"3","Q10":"1","Q12":"1","Q04":"3","Q01":"3"},"rt":81819.19999999925,"item_order":[10,4,1,6,7,5,12,8,2,9,11,3,0],"radio_events":[13768.199999999255,18561.199999999255,21266.599999999627,24483.799999998882,31424.199999999255,34881,38420.29999999888,50527.699999999255,62488.59999999963,66337.29999999888,72905.5,77944.40000000037,80478.59999999963],"key_events":[],"mouse_events":[13768.199999999255,18561.199999999255,21266.599999999627,24483.799999998882,31424.199999999255,34881,38420.29999999888,50527.699999999255,62488.59999999963,66337.29999999888,72905.5,77944.40000000037,80478.59999999963,81812.59999999963],"straightlining":0.5384615384615384,"zigzagging":0.4166666666666667,"honeypot":0,"survey":"bisbas","trial_type":"survey-template","trial_index":3,"time_elapsed":242504,"internal_node_id":"0.0-3.0","task_version":"prescreen-v0.3","browser_interactions":0,"infrequency":0},{"responses":{"Q01":"3","Q02":"3","Q03":"3"},"rt":25559.699999999255,"radio_events":[4996.299999998882,15955.099999999627,24367.599999999627],"key_events":[],"mouse_events":[4996.299999998882,15955.099999999627,23484.39999999851,24367.599999999627,25554.89999999851],"survey":"map","page":1,"trial_type":"survey-map","trial_index":4,"time_elapsed":268079,"internal_node_id":"0.0-4.0","task_version":"prescreen-v0.3","browser_interactions":0},{"responses":{"Q04":"4","Q05":"4","Q06":"3"},"rt":13303.900000000373,"radio_events":[5060.60000000149,9031.200000001118,12378.400000000373],"key_events":[],"mouse_events":[5060.60000000149,9031.200000001118,12378.400000000373,13301.200000001118],"survey":"map","page":2,"trial_type":"survey-map","trial_index":5,"time_elapsed":281391,"internal_node_id":"0.0-5.0","task_version":"prescreen-v0.3","browser_interactions":0},{"responses":{"Q07":"2","Q08":"0","Q09":"4"},"rt":15349,"radio_events":[5848.800000000745,9226.700000001118,14255.800000000745],"key_events":[],"mouse_events":[5848.800000000745,9226.700000001118,14255.800000000745,15344.700000001118],"survey":"map","page":3,"trial_type":"survey-map","trial_index":6,"time_elapsed":296752,"internal_node_id":"0.0-6.0","task_version":"prescreen-v0.3","browser_interactions":0},{"responses":{"Q10":"3","Q11":"2","Q12":"2","Q13":"2","Q16":"0","Q14":"3","Q15":"2"},"rt":45034.199999999255,"radio_events":[7731.5999999996275,11736.599999999627,19462.599999999627,28449.599999999627,32024,39298.300000000745,43846.5],"key_events":[],"mouse_events":[7731.5999999996275,10694.699999999255,11736.599999999627,19462.599999999627,28449.599999999627,32024,39298.300000000745,43846.5,45027.800000000745],"survey":"map","page":4,"trial_type":"survey-map","trial_index":7,"time_elapsed":341797,"internal_node_id":"0.0-7.0","task_version":"prescreen-v0.3","browser_interactions":0,"infrequency":0},{"view_history":[{"page_index":0,"viewing_time":2493},{"page_index":1,"viewing_time":4805.299999998882}],"rt":7301.199999999255,"trial_type":"instructions","trial_index":8,"time_elapsed":349102,"internal_node_id":"0.0-8.0","task_version":"prescreen-v0.3"},{"responses":{"01":"Yes","01_ages_12":"12","01_ages_13":"13","01_ages_14":"14","01_ages_15":"15","01_ages_16":"16","01_ages_17":"17","02":"Yes","02_ages_10":"10","02_ages_11":"11","02_ages_12":"12","02_ages_13":"13","02_ages_14":"14","02_ages_15":"15","02_ages_16":"16","03":"No","04":"No","05":"No","06":"No"},"rt":63689.800000000745,"item_order":[0,1,2,3,4,5],"radio_events":[7684.699999999255,27791.699999999255,52036.90000000037,57906,59914.90000000037,61655.90000000037],"checkbox_events":[17093.199999999255,17973.599999999627,19019.800000000745,20099.199999999255,21201.900000000373,22147,36430,37363.90000000037,38564.09999999963,39546.199999999255,40814.59999999963,43627.699999999255,45098.5],"key_events":[],"mouse_events":[0.30000000074505806,7684.699999999255,17093.199999999255,17973.599999999627,19019.800000000745,20099.199999999255,21201.900000000373,22147,27791.699999999255,36430,37363.90000000037,38564.09999999963,39546.199999999255,40814.59999999963,43627.699999999255,45098.5,52036.90000000037,57906,59914.90000000037,61655.90000000037,63676.199999999255],"honeypot":0,"survey":"mace","page":1,"trial_type":"survey-mace","trial_index":9,"time_elapsed":412821,"internal_node_id":"0.0-9.0","task_version":"prescreen-v0.3","browser_interactions":0},{"responses":{"01":"No","02":"No","03":"Yes","03_ages_4":"4","03_ages_5":"5","03_ages_6":"6","04":"Yes","04_ages_4":"4","04_ages_5":"5","04_ages_6":"6","05":"Yes","05_ages_4":"4","05_ages_5":"5","05_ages_6":"6","06":"No","07":"No","08":"No"},"rt":47514.09999999963,"item_order":[0,1,2,3,4,5,6,7],"radio_events":[3032.800000000745,5760.5,11252.800000000745,26127.099999999627,34938.40000000037,43754.09999999963,45310.59999999963,46455.800000000745],"checkbox_events":[15522.199999999255,16656.199999999255,17679.599999999627,27475,28453.599999999627,29383,36637.40000000037,37686,38565.199999999255],"key_events":[],"mouse_events":[3032.800000000745,5760.5,11252.800000000745,15522.199999999255,16656.199999999255,17679.599999999627,26127.099999999627,27475,28453.599999999627,29383,34938.40000000037,36637.40000000037,37686,38565.199999999255,43754.09999999963,45310.59999999963,46455.800000000745,47498.09999999963],"honeypot":0,"survey":"mace","page":2,"trial_type":"survey-mace","trial_index":10,"time_elapsed":460355,"internal_node_id":"0.0-10.0","task_version":"prescreen-v0.3","browser_interactions":0},{"responses":{"01":"No","02":"No","03":"No","04":"No"},"rt":13842.300000000745,"item_order":[0,1,2,3],"radio_events":[5065.700000001118,8186.5,9931.300000000745,12581.60000000149],"checkbox_events":[],"key_events":[],"mouse_events":[5065.700000001118,8186.5,9931.300000000745,12581.60000000149,13832.10000000149],"honeypot":0,"survey":"mace","page":3,"trial_type":"survey-mace","trial_index":11,"time_elapsed":474212,"internal_node_id":"0.0-11.0","task_version":"prescreen-v0.3","browser_interactions":0},{"responses":{"01":"No","02":"No"},"rt":12528.300000000745,"item_order":[0,1],"radio_events":[7789.9000000003725,10403.800000000745],"checkbox_events":[],"key_events":[],"mouse_events":[7789.9000000003725,10403.800000000745,12523.599999999627],"honeypot":0,"survey":"mace","page":4,"trial_type":"survey-mace","trial_index":12,"time_elapsed":486753,"internal_node_id":"0.0-12.0","task_version":"prescreen-v0.3","browser_interactions":0},{"responses":{"01":"No","02":"No","03":"No","04":"No","05":"No"},"rt":32776.5,"item_order":[0,1,2,3,4],"radio_events":[13220,16304.199999999255,25399.199999999255,28772.799999998882,31685.39999999851],"checkbox_events":[],"key_events":[],"mouse_events":[13220,16304.199999999255,25399.199999999255,28772.799999998882,31685.39999999851,32766.099999999627],"honeypot":0,"survey":"mace","page":5,"trial_type":"survey-mace","trial_index":13,"time_elapsed":519545,"internal_node_id":"0.0-13.0","task_version":"prescreen-v0.3","browser_interactions":0},{"responses":{"01":"No","02":"No","03":"No","04":"No","05":"No"},"rt":19618,"item_order":[0,1,2,3,4],"radio_events":[7345.5,10408.10000000149,11766.5,13946.700000001118,18632.10000000149],"checkbox_events":[],"key_events":[],"mouse_events":[7345.5,10408.10000000149,11766.5,13946.700000001118,17605.200000001118,18632.10000000149,19604.10000000149],"honeypot":0,"survey":"mace","page":6,"trial_type":"survey-mace","trial_index":14,"time_elapsed":539181,"internal_node_id":"0.0-14.0","task_version":"prescreen-v0.3","browser_interactions":0},{"responses":{"01":"No","02":"No","03":"No","04":"No","05":"No","06":"No","07":"No"},"rt":20761.400000000373,"item_order":[0,1,2,3,4,5,6],"radio_events":[4406.10000000149,6605.700000001118,8322.10000000149,13621.400000000373,14941.10000000149,18332.60000000149,19587.5],"checkbox_events":[],"key_events":[],"mouse_events":[4406.10000000149,6605.700000001118,8322.10000000149,13621.400000000373,14941.10000000149,18332.60000000149,19587.5,20745.300000000745],"honeypot":0,"survey":"mace","page":7,"trial_type":"survey-mace","trial_index":15,"time_elapsed":559963,"internal_node_id":"0.0-15.0","task_version":"prescreen-v0.3","browser_interactions":0},{"responses":{"01":"No","02":"Yes","02_ages_6":"6","02_ages_7":"7","02_ages_8":"8","02_ages_9":"9","02_ages_10":"10","03":"Yes","03_ages_9":"9","03_ages_10":"10","03_ages_11":"11","03_ages_12":"12","03_ages_13":"13","03_ages_14":"14","03_ages_15":"15","03_ages_16":"16","03_ages_17":"17","03_ages_18":"18","04":"No"},"rt":62491.20000000112,"item_order":[0,1,2,3],"radio_events":[19368.700000001118,26922.5,43601.70000000112,61344.20000000112],"checkbox_events":[31791.700000001118,32606.300000000745,33558.60000000149,34519.20000000112,35665.800000000745,47329.20000000112,48182.5,49181.5,50161.800000000745,51109.70000000112,51963.20000000112,52927.90000000037,54234.90000000037,55120.60000000149,56800.90000000037],"key_events":[],"mouse_events":[19368.700000001118,26922.5,31791.700000001118,32606.300000000745,33558.60000000149,34519.20000000112,35665.800000000745,43601.70000000112,47329.20000000112,48182.5,49181.5,50161.800000000745,51109.70000000112,51963.20000000112,52927.90000000037,54234.90000000037,55120.60000000149,56800.90000000037,61344.20000000112,62478],"honeypot":0,"survey":"mace","page":8,"trial_type":"survey-mace","trial_index":16,"time_elapsed":622466,"internal_node_id":"0.0-16.0","task_version":"prescreen-v0.3","browser_interactions":0},{"responses":{"01":"Yes","01_ages_1":"1","01_ages_2":"2","01_ages_3":"3","01_ages_4":"4","01_ages_5":"5","01_ages_6":"6","01_ages_7":"7","01_ages_8":"8","01_ages_9":"9","01_ages_10":"10","01_ages_11":"11","01_ages_12":"12","01_ages_13":"13","01_ages_14":"14","01_ages_15":"15","01_ages_16":"16","01_ages_17":"17","01_ages_18":"18","02":"Yes","02_ages_11":"11","02_ages_12":"12","02_ages_13":"13","02_ages_14":"14","02_ages_15":"15","02_ages_16":"16","02_ages_17":"17","02_ages_18":"18","03":"Yes","03_ages_1":"1","03_ages_2":"2","03_ages_3":"3","03_ages_4":"4","03_ages_5":"5","03_ages_6":"6","03_ages_7":"7","03_ages_8":"8","03_ages_9":"9","03_ages_10":"10","03_ages_11":"11","03_ages_12":"12","03_ages_13":"13","03_ages_14":"14","03_ages_15":"15","03_ages_16":"16","03_ages_17":"17","03_ages_18":"18","04":"Yes","04_ages_1":"1","04_ages_2":"2","04_ages_3":"3","04_ages_4":"4","04_ages_5":"5","04_ages_6":"6","04_ages_7":"7","04_ages_8":"8","04_ages_9":"9","04_ages_10":"10","04_ages_11":"11","04_ages_12":"12","04_ages_13":"13","04_ages_14":"14","04_ages_15":"15","04_ages_16":"16","04_ages_17":"17","04_ages_18":"18"},"rt":99300.89999999851,"item_order":[0,1,2,3],"radio_events":[5236.299999998882,32144.39999999851,55679.09999999963,80395.29999999888],"checkbox_events":[9653,10629.799999998882,11639.799999998882,12475.699999999255,13943.5,14766.199999999255,15647.699999999255,16478.5,17413.39999999851,18242.699999999255,19209.799999998882,19982.89999999851,20778.39999999851,21784.299999998882,22539.199999999255,23759.39999999851,24730.39999999851,25629.799999998882,40011.09999999963,40836.699999999255,41684.5,42569.09999999963,42578.29999999888,43932.79999999888,45236.29999999888,46061.29999999888,46845.39999999851,48927.699999999255,57431.59999999963,58292.89999999851,59208.29999999888,59888,60710.39999999851,62484.29999999888,63468.89999999851,64383,65314.29999999888,66387.19999999925,67270.39999999851,68849.29999999888,70135.19999999925,71071.59999999963,71726.69999999925,72487.79999999888,73323.89999999851,74032.59999999963,82265.29999999888,83069.19999999925,83857.89999999851,84790.5,85892.5,86836.09999999963,87651.59999999963,88605.59999999963,89327.39999999851,90203.79999999888,90994.19999999925,91737.59999999963,92405.29999999888,93069.5,93773.19999999925,94605.69999999925,95343.5,96172.09999999963],"key_events":[],"mouse_events":[5236.299999998882,9653,10629.799999998882,11639.799999998882,12475.699999999255,13943.5,14766.199999999255,15647.699999999255,16478.5,17413.39999999851,18242.699999999255,19209.799999998882,19982.89999999851,20778.39999999851,21784.299999998882,22539.199999999255,23759.39999999851,24730.39999999851,25629.799999998882,32144.39999999851,40011.09999999963,40836.699999999255,41684.5,42569.09999999963,42578.29999999888,43932.79999999888,45236.29999999888,46061.29999999888,46845.39999999851,48927.699999999255,55679.09999999963,57431.59999999963,58292.89999999851,59208.29999999888,59888,60710.39999999851,61570.79999999888,62484.29999999888,63468.89999999851,64383,65314.29999999888,66387.19999999925,67270.39999999851,68849.29999999888,70135.19999999925,71071.59999999963,71726.69999999925,72487.79999999888,73323.89999999851,74032.59999999963,80395.29999999888,82265.29999999888,83069.19999999925,83857.89999999851,84790.5,85892.5,86836.09999999963,87651.59999999963,88605.59999999963,89327.39999999851,90203.79999999888,90994.19999999925,91737.59999999963,92405.29999999888,93069.5,93773.19999999925,94605.69999999925,95343.5,96172.09999999963,99288.39999999851],"honeypot":0,"survey":"mace","page":9,"trial_type":"survey-mace","trial_index":17,"time_elapsed":721781,"internal_node_id":"0.0-17.0","task_version":"prescreen-v0.3","browser_interactions":0},{"responses":{"01":"No","02":"No","03":"No","04":"No","05":"No","06":"Yes","06_ages_17":"17","07":"Yes","07_ages_1":"1","07_ages_2":"2","07_ages_3":"3","07_ages_4":"4","07_ages_5":"5","07_ages_6":"6","07_ages_7":"7","07_ages_8":"8","07_ages_9":"9","07_ages_10":"10","07_ages_11":"11","07_ages_12":"12","07_ages_13":"13","07_ages_14":"14","07_ages_15":"15","07_ages_16":"16","07_ages_17":"17","07_ages_18":"18","08":"Yes","08_ages_5":"5","08_ages_6":"6","08_ages_7":"7","08_ages_8":"8","08_ages_9":"9","08_ages_10":"10","08_ages_11":"11","08_ages_12":"12","08_ages_13":"13","08_ages_14":"14","08_ages_15":"15","08_ages_16":"16"},"rt":72342.70000000112,"item_order":[0,1,2,3,4,5,6,7],"radio_events":[7239.700000001118,8264.300000000745,12069.60000000149,13944.400000000373,16262.400000000373,22612.400000000373,29243.60000000149,50872.90000000037],"checkbox_events":[24900.300000000745,32806,33599,34598.40000000037,35448.10000000149,36106,37147.10000000149,37987.300000000745,38683.5,39558.20000000112,40244.5,40907.300000000745,41787.800000000745,42614,43391.800000000745,44443,45198,46197.60000000149,47034.300000000745,59579.10000000149,60420.40000000037,61240.10000000149,62721.5,63526.5,64522.20000000112,65257,65875.5,66750.10000000149,67459.90000000037,68173,68914.5],"key_events":[],"mouse_events":[7239.700000001118,8264.300000000745,12069.60000000149,13944.400000000373,16262.400000000373,22612.400000000373,24900.300000000745,29243.60000000149,32806,33599,34598.40000000037,35448.10000000149,36106,37147.10000000149,37987.300000000745,38683.5,39558.20000000112,40244.5,40907.300000000745,41787.800000000745,42614,43391.800000000745,44443,45198,46197.60000000149,47034.300000000745,50872.90000000037,59579.10000000149,60420.40000000037,61240.10000000149,62086.800000000745,62721.5,63526.5,64522.20000000112,65257,65875.5,66750.10000000149,67459.90000000037,68173,68914.5,72327.5],"honeypot":0,"survey":"mace","page":10,"trial_type":"survey-mace","trial_index":18,"time_elapsed":794143,"internal_node_id":"0.0-18.0","task_version":"prescreen-v0.3","browser_interactions":0,"instructed":0},{"rt":5822.10000000149,"trial_type":"mental-health-alert","trial_index":19,"time_elapsed":799975,"internal_node_id":"0.0-19.0","task_version":"prescreen-v0.3","interactions":"[]"}]