[{"view_history":[{"page_index":0,"viewing_time":5519.100000023842},{"page_index":1,"viewing_time":3765.399999976158},{"page_index":2,"viewing_time":4488.200000047684},{"page_index":3,"viewing_time":1018.1000000238419}],"rt":14791.200000047684,"trial_type":"instructions","trial_index":0,"time_elapsed":14804,"internal_node_id":"0.0-0.0","task_version":"prescreen-v0.3"},{"rt":66297.89999997616,"responses":{"age":"27","gender-categorical":"Male","gender-free-response":"","ethnicity":"Not Hispanic or Latino","race":["White"],"education":"High school","siblings":"2"},"trial_type":"survey-demo","trial_index":1,"time_elapsed":81105,"internal_node_id":"0.0-1.0","task_version":"prescreen-v0.3"},{"responses":{"Q17":"3","Q01":"3","Q10":"1","Q07":"0","Q02":"3","Q05":"1","Q19":"2","Q09":"3","Q12":"0","Q16":"3","Q18":"2","Q13":"2","Q11":"0","Q06":"3","Q04":"3","Q08":"3","Q03":"3","Q20":"2","Q21":"3","Q14":"3","Q15":"3"},"rt":170112.40000009537,"item_order":[16,0,9,6,1,4,18,8,11,15,17,12,10,5,3,7,2,19,20,13,14],"radio_events":[7037.200000047684,35489.60000002384,42043.5,45358.60000002384,54749.700000047684,68576.60000002384,74628.40000009537,80493.5,85518.60000002384,91306.5,98094.60000002384,102913.30000007153,112291.80000007153,117210.30000007153,120165.60000002384,121216.20000004768,123848.20000004768,127818.20000004768,132942.20000004768,146779.30000007153,150107.30000007153,164999.60000002384],"key_events":[7037.200000047684,7890.200000047684,35489.60000002384,42043.5,45358.60000002384,54749.700000047684,67017.90000009537,68144.10000002384,68576.60000002384,74628.40000009537,80493.5,84944.20000004768,85518.60000002384,91306.5,98094.60000002384,102913.30000007153,111093.80000007153,111401.40000009537,112291.80000007153,117210.30000007153,118913.60000002384,120165.60000002384,121216.20000004768,123848.20000004768,127818.20000004768,132942.20000004768,146779.30000007153,150107.30000007153,151409.20000004768,159016.60000002384,164999.60000002384,170111.10000002384],"mouse_events":[],"straightlining":0.5714285714285714,"zigzagging":0.5,"honeypot":0,"survey":"sns","trial_type":"survey-template","trial_index":2,"time_elapsed":251223,"internal_node_id":"0.0-2.0","task_version":"prescreen-v0.3","browser_interactions":4,"infrequency":0},{"responses":{"Q11":"1","Q02":"3","Q05":"3","Q03":"3","Q08":"0","Q04":"3","Q10":"0","Q09":"1","Q07":"3","Q06":"0","Q13":"0","Q12":"2","Q01":"3"},"rt":100164.5,"item_order":[10,1,4,2,7,3,9,8,6,5,12,11,0],"radio_events":[9014.300000071526,12984.300000071526,19137.600000023842,28477.200000047684,34367.90000009537,37752.200000047684,39087.200000047684,56938.10000002384,61000.60000002384,66940.30000007153,75881.40000009537,89911.40000009537,90644.5,99055.30000007153],"key_events":[9014.300000071526,12984.300000071526,19137.600000023842,23459.200000047684,28477.200000047684,34367.90000009537,37752.200000047684,39087.200000047684,56938.10000002384,61000.60000002384,64629.60000002384,66940.30000007153,75881.40000009537,89911.40000009537,90644.5,90998.10000002384,99055.30000007153,100163.90000009537],"mouse_events":[],"straightlining":0.46153846153846156,"zigzagging":0.5,"honeypot":0,"survey":"bisbas","trial_type":"survey-template","trial_index":3,"time_elapsed":351393,"internal_node_id":"0.0-3.0","task_version":"prescreen-v0.3","browser_interactions":0,"infrequency":0},{"responses":{"Q01":"0","Q02":"2","Q03":"1"},"rt":18904.5,"radio_events":[4925,11908,13064.5,17155],"key_events":[4925,11908,13064.5,17155,18904.099999904633],"mouse_events":[],"survey":"map","page":1,"trial_type":"survey-map","trial_index":4,"time_elapsed":370301,"internal_node_id":"0.0-4.0","task_version":"prescreen-v0.3","browser_interactions":0},{"responses":{"Q04":"2","Q05":"2","Q06":"2"},"rt":14920,"radio_events":[9692.600000023842,11272.800000071526,14062],"key_events":[9692.600000023842,11272.800000071526,14062,14919.600000023842],"mouse_events":[],"survey":"map","page":2,"trial_type":"survey-map","trial_index":5,"time_elapsed":385225,"internal_node_id":"0.0-5.0","task_version":"prescreen-v0.3","browser_interactions":0},{"responses":{"Q07":"1","Q08":"0","Q09":"2"},"rt":25410.700000047684,"radio_events":[15548.399999976158,19240.399999976158,23973.700000047684],"key_events":[13193.700000047684,14189.299999952316,15548.399999976158,19240.399999976158,23973.700000047684,25410.399999976158],"mouse_events":[],"survey":"map","page":3,"trial_type":"survey-map","trial_index":6,"time_elapsed":410640,"internal_node_id":"0.0-6.0","task_version":"prescreen-v0.3","browser_interactions":0},{"responses":{"Q10":"0","Q11":"0","Q12":"0","Q13":"0","Q16":"0","Q14":"0","Q15":"0"},"rt":42211.200000047684,"radio_events":[4727.399999976158,9873.899999976158,15628.300000071526,22784,30659.300000071526,33891.10000002384,40364.10000002384],"key_events":[4727.399999976158,9873.899999976158,15628.300000071526,22784,30659.300000071526,33891.10000002384,39090.39999997616,39704.700000047684,40364.10000002384,42210.5],"mouse_events":[],"survey":"map","page":4,"trial_type":"survey-map","trial_index":7,"time_elapsed":452855,"internal_node_id":"0.0-7.0","task_version":"prescreen-v0.3","browser_interactions":0,"infrequency":0},{"view_history":[{"page_index":0,"viewing_time":3528.1999999284744},{"page_index":1,"viewing_time":5637.600000023842}],"rt":9166.399999976158,"trial_type":"instructions","trial_index":8,"time_elapsed":462024,"internal_node_id":"0.0-8.0","task_version":"prescreen-v0.3"},{"responses":{"01":"No","02":"No","03":"Yes","03_ages_13":"13","03_ages_15":"15","03_ages_16":"16","04":"Yes","04_ages_9":"9","04_ages_10":"10","04_ages_11":"11","04_ages_12":"12","05":"No","06":"Yes","06_ages_15":"15","06_ages_16":"16","06_ages_17":"17"},"rt":82478.39999997616,"item_order":[0,1,2,3,4,5],"radio_events":[8053.200000047684,13485.5,14537,41429.60000002384,63185.800000071526,64046.89999997616,71767],"checkbox_events":[25900.700000047684,28061,31822.5,36864.700000047684,37777.300000071526,48473.700000047684,54427,54996.10000002384,55807.700000047684,74369.60000002384,76934.60000002384,80947.80000007153],"key_events":[0,8053.200000047684,13485.5,14537,25900.700000047684,28061,31822.5,36864.700000047684,37777.300000071526,41429.60000002384,48473.700000047684,54427,54996.10000002384,55807.700000047684,63185.800000071526,64046.89999997616,71767,74369.60000002384,76934.60000002384,80195.20000004768,80947.80000007153,82477],"mouse_events":[],"honeypot":0,"survey":"mace","page":1,"trial_type":"survey-mace","trial_index":9,"time_elapsed":544508,"internal_node_id":"0.0-9.0","task_version":"prescreen-v0.3","browser_interactions":0},{"responses":{"01":"No","02":"No","03":"No","04":"Yes","04_ages_7":"7","04_ages_8":"8","05":"Yes","05_ages_7":"7","05_ages_8":"8","05_ages_9":"9","06":"No","07":"No","08":"No"},"rt":59193.299999952316,"item_order":[0,1,2,3,4,5,6,7],"radio_events":[5882.100000023842,9910.399999976158,19224.600000023842,35385.10000002384,40413.699999928474,41621.199999928474,42870.299999952316,56156.89999997616],"checkbox_events":[29674.899999976158,30145.299999952316,36212.199999928474,37552,37994.10000002384],"key_events":[5882.100000023842,9910.399999976158,19224.600000023842,29674.899999976158,30145.299999952316,35385.10000002384,36212.199999928474,37552,37994.10000002384,40413.699999928474,41621.199999928474,42870.299999952316,56156.89999997616,59191.10000002384],"mouse_events":[],"honeypot":0,"survey":"mace","page":2,"trial_type":"survey-mace","trial_index":10,"time_elapsed":603705,"internal_node_id":"0.0-10.0","task_version":"prescreen-v0.3","browser_interactions":0},{"responses":{"01":"No","02":"No","03":"No","04":"No"},"rt":10270.799999952316,"item_order":[0,1,2,3],"radio_events":[5879.699999928474,7493.299999952316,8236.899999976158,9643.899999976158],"checkbox_events":[],"key_events":[5879.699999928474,7493.299999952316,8236.899999976158,8893.099999904633,9643.899999976158,10269.199999928474],"mouse_events":[],"honeypot":0,"survey":"mace","page":3,"trial_type":"survey-mace","trial_index":11,"time_elapsed":613980,"internal_node_id":"0.0-11.0","task_version":"prescreen-v0.3","browser_interactions":0},{"responses":{"01":"No","02":"No"},"rt":5423.399999976158,"item_order":[0,1],"radio_events":[2899.8000000715256,3814.7000000476837],"checkbox_events":[],"key_events":[2899.8000000715256,3814.7000000476837,5422.800000071526],"mouse_events":[],"honeypot":0,"survey":"mace","page":4,"trial_type":"survey-mace","trial_index":12,"time_elapsed":619407,"internal_node_id":"0.0-12.0","task_version":"prescreen-v0.3","browser_interactions":0},{"responses":{"01":"Yes","01_ages_9":"9","01_ages_10":"10","01_ages_11":"11","01_ages_12":"12","01_ages_15":"15","02":"No","03":"No","04":"No","05":"No"},"rt":36247.89999997616,"item_order":[0,1,2,3,4],"radio_events":[4385,16728,21774.899999976158,31290.899999976158,32928.199999928474],"checkbox_events":[6639,8609.199999928474,9167.099999904633,11517.899999976158,11858.299999952316],"key_events":[4385,6639,8609.199999928474,9167.099999904633,11517.899999976158,11858.299999952316,16728,21774.899999976158,31290.899999976158,32928.199999928474,36245.799999952316],"mouse_events":[],"honeypot":0,"survey":"mace","page":5,"trial_type":"survey-mace","trial_index":13,"time_elapsed":655659,"internal_node_id":"0.0-13.0","task_version":"prescreen-v0.3","browser_interactions":0},{"responses":{"01":"Yes","01_ages_8":"8","01_ages_9":"9","01_ages_10":"10","01_ages_11":"11","01_ages_12":"12","01_ages_13":"13","01_ages_14":"14","01_ages_15":"15","02":"Yes","02_ages_8":"8","02_ages_9":"9","02_ages_10":"10","02_ages_11":"11","02_ages_12":"12","02_ages_13":"13","02_ages_14":"14","02_ages_15":"15","03":"Yes","03_ages_8":"8","03_ages_9":"9","03_ages_10":"10","03_ages_11":"11","03_ages_12":"12","03_ages_13":"13","03_ages_14":"14","03_ages_15":"15","04":"Yes","04_ages_8":"8","04_ages_9":"9","04_ages_10":"10","04_ages_11":"11","04_ages_12":"12","05":"Yes","05_ages_8":"8","05_ages_9":"9","05_ages_10":"10","05_ages_11":"11","05_ages_12":"12","05_ages_13":"13","05_ages_14":"14","05_ages_15":"15","05_ages_16":"16"},"rt":65927.19999992847,"item_order":[0,1,2,3,4],"radio_events":[6403.799999952316,24701.099999904633,34817.199999928474,48623.799999952316,55706.09999990463],"checkbox_events":[11323,11821.399999976158,12305.099999904633,12841.699999928474,13483.399999976158,16533.099999904633,17404.399999976158,18862,27260,27532.099999904633,28750.899999976158,29055.899999976158,29522,29906.099999904633,30476,31365,31695.5,35818.59999990463,36623.89999997616,37319.799999952316,37658.299999952316,38119.699999928474,38451.59999990463,38786.199999928474,39454,40298,43426.199999928474,44905.09999990463,50074.699999928474,50546.799999952316,50963,51355.699999928474,51743.799999952316,56822.09999990463,57185.199999928474,57582.09999990463,58274.699999928474,58781.39999997616,59844.199999928474,61418.09999990463,61831.89999997616,62226.09999990463,63924.799999952316,64778.5],"key_events":[6403.799999952316,11323,11821.399999976158,12305.099999904633,12841.699999928474,13483.399999976158,16533.099999904633,17404.399999976158,18862,19149.699999928474,24701.099999904633,27260,27532.099999904633,28011.899999976158,28314.899999976158,28750.899999976158,29055.899999976158,29522,29906.099999904633,30476,31365,31695.5,34817.199999928474,35818.59999990463,36166.09999990463,36623.89999997616,36957.89999997616,37319.799999952316,37658.299999952316,38119.699999928474,38451.59999990463,38786.199999928474,39454,39791.799999952316,40298,43426.199999928474,44905.09999990463,48623.799999952316,50074.699999928474,50546.799999952316,50963,51355.699999928474,51743.799999952316,55706.09999990463,56822.09999990463,57185.199999928474,57582.09999990463,58274.699999928474,58781.39999997616,59173.89999997616,59844.199999928474,61418.09999990463,61831.89999997616,62226.09999990463,63924.799999952316,64778.5,65925.19999992847],"mouse_events":[],"honeypot":0,"survey":"mace","page":6,"trial_type":"survey-mace","trial_index":14,"time_elapsed":721591,"internal_node_id":"0.0-14.0","task_version":"prescreen-v0.3","browser_interactions":0},{"responses":{"01":"Yes","01_ages_14":"14","01_ages_15":"15","02":"Yes","02_ages_7":"7","02_ages_8":"8","02_ages_9":"9","02_ages_10":"10","02_ages_11":"11","02_ages_12":"12","03":"Yes","03_ages_7":"7","03_ages_8":"8","03_ages_9":"9","03_ages_10":"10","03_ages_11":"11","04":"Yes","04_ages_7":"7","04_ages_8":"8","04_ages_9":"9","04_ages_10":"10","04_ages_11":"11","05":"No","06":"No","07":"No"},"rt":37697.5,"item_order":[0,1,2,3,4,5,6],"radio_events":[3460.399999976158,18050.899999976158,23044.399999976158,28819,35005.700000047684,36194.200000047684,37061.200000047684],"checkbox_events":[6636.300000071526,9432.300000071526,9676.600000023842,12222.399999976158,19506.200000047684,19864.399999976158,20182.899999976158,20507.399999976158,20839.200000047684,21140.200000047684,24911,25216.800000071526,25517.200000047684,25854.200000047684,26668.700000047684,30201.899999976158,31068.200000047684,31844.600000023842,32160,32477.5],"key_events":[3460.399999976158,6636.300000071526,9432.300000071526,9676.600000023842,12222.399999976158,18050.899999976158,19506.200000047684,19864.399999976158,20182.899999976158,20507.399999976158,20839.200000047684,21140.200000047684,23044.399999976158,24403.600000023842,24911,25216.800000071526,25517.200000047684,25854.200000047684,26668.700000047684,28819,29666.5,30201.899999976158,30518.100000023842,31068.200000047684,31284.600000023842,31844.600000023842,32160,32477.5,35005.700000047684,36194.200000047684,37061.200000047684,37695.5],"mouse_events":[],"honeypot":0,"survey":"mace","page":7,"trial_type":"survey-mace","trial_index":15,"time_elapsed":759294,"internal_node_id":"0.0-15.0","task_version":"prescreen-v0.3","browser_interactions":0},{"responses":{"01":"Yes","01_ages_9":"9","01_ages_10":"10","01_ages_11":"11","01_ages_12":"12","01_ages_13":"13","01_ages_14":"14","02":"Yes","02_ages_9":"9","02_ages_10":"10","02_ages_11":"11","02_ages_12":"12","02_ages_13":"13","02_ages_14":"14","02_ages_15":"15","02_ages_16":"16","02_ages_17":"17","02_ages_18":"18","03":"No","04":"No"},"rt":84925.30000007153,"item_order":[0,1,2,3],"radio_events":[9775.300000071526,52597.800000071526,76728.10000002384,84186.60000002384],"checkbox_events":[39583.10000002384,41487.89999997616,41789.89999997616,42992.200000047684,43670.10000002384,48407.89999997616,56695.89999997616,57654.89999997616,57970.300000071526,58393.89999997616,58750.800000071526,59880.5,60169.89999997616,60578.10000002384,63301,63689.800000071526,69761.70000004768,70681.80000007153],"key_events":[9775.300000071526,39583.10000002384,41487.89999997616,41789.89999997616,42992.200000047684,43670.10000002384,47997.5,48407.89999997616,52597.800000071526,56695.89999997616,57196.800000071526,57654.89999997616,57970.300000071526,58393.89999997616,58750.800000071526,59880.5,60169.89999997616,60578.10000002384,63301,63689.800000071526,69761.70000004768,70681.80000007153,76728.10000002384,84186.60000002384,84923.89999997616],"mouse_events":[],"honeypot":0,"survey":"mace","page":8,"trial_type":"survey-mace","trial_index":16,"time_elapsed":844224,"internal_node_id":"0.0-16.0","task_version":"prescreen-v0.3","browser_interactions":0},{"responses":{"01":"Yes","01_ages_1":"1","01_ages_2":"2","01_ages_3":"3","01_ages_4":"4","01_ages_5":"5","01_ages_6":"6","01_ages_7":"7","01_ages_8":"8","01_ages_9":"9","01_ages_10":"10","01_ages_11":"11","01_ages_12":"12","01_ages_13":"13","02":"Yes","02_ages_1":"1","02_ages_2":"2","02_ages_3":"3","02_ages_4":"4","02_ages_5":"5","02_ages_6":"6","02_ages_7":"7","02_ages_8":"8","02_ages_9":"9","02_ages_10":"10","02_ages_11":"11","02_ages_12":"12","02_ages_13":"13","03":"Yes","03_ages_1":"1","03_ages_2":"2","03_ages_3":"3","03_ages_4":"4","03_ages_5":"5","03_ages_6":"6","03_ages_7":"7","03_ages_8":"8","03_ages_9":"9","03_ages_10":"10","03_ages_11":"11","03_ages_12":"12","03_ages_13":"13","04":"Yes","04_ages_1":"1","04_ages_2":"2","04_ages_3":"3","04_ages_4":"4","04_ages_5":"5","04_ages_6":"6","04_ages_7":"7","04_ages_8":"8","04_ages_9":"9","04_ages_10":"10","04_ages_11":"11","04_ages_12":"12","04_ages_13":"13"},"rt":56727.60000002384,"item_order":[0,1,2,3],"radio_events":[4262.5,28050.5,37843.199999928474,49557.5],"checkbox_events":[13116.799999952316,16040.799999952316,16458.899999976158,16927,17258.600000023842,18659.799999952316,18965,19300.299999952316,19602.199999928474,22014.399999976158,22446.5,23207.600000023842,23857.899999976158,28882.699999928474,29549.699999928474,29874.699999928474,30545.5,30885.600000023842,31592.600000023842,31932.299999952316,32387.699999928474,33033.39999997616,33541.5,33938.699999928474,34477.699999928474,35383.799999952316,38875.10000002384,39150.799999952316,39504.60000002384,40291.60000002384,40649.699999928474,41075.799999952316,41426.699999928474,41778.699999928474,43059.699999928474,43385.5,43825.39999997616,44367.5,44787.5,50694.5,50999.10000002384,51334.39999997616,52308.5,52590.39999997616,52932.799999952316,53271.60000002384,53602.39999997616,54004.60000002384,54394.799999952316,54837.699999928474,55343.799999952316,56015.699999928474],"key_events":[4262.5,13116.799999952316,16040.799999952316,16458.899999976158,16927,17258.600000023842,18659.799999952316,18965,19300.299999952316,19602.199999928474,22014.399999976158,22446.5,23207.600000023842,23857.899999976158,28050.5,28882.699999928474,29549.699999928474,29874.699999928474,30181.299999952316,30545.5,30885.600000023842,31191.699999928474,31592.600000023842,31932.299999952316,32387.699999928474,33033.39999997616,33541.5,33938.699999928474,34477.699999928474,35383.799999952316,37843.199999928474,38875.10000002384,39150.799999952316,39504.60000002384,39850.699999928474,40291.60000002384,40649.699999928474,41075.799999952316,41426.699999928474,41778.699999928474,42323.5,42748,43059.699999928474,43385.5,43825.39999997616,44367.5,44787.5,49258.39999997616,49557.5,50340.299999952316,50694.5,50999.10000002384,51334.39999997616,51687.699999928474,52308.5,52590.39999997616,52932.799999952316,53271.60000002384,53602.39999997616,54004.60000002384,54394.799999952316,54837.699999928474,55343.799999952316,55712.299999952316,56015.699999928474,56726.299999952316],"mouse_events":[],"honeypot":0,"survey":"mace","page":9,"trial_type":"survey-mace","trial_index":17,"time_elapsed":900955,"internal_node_id":"0.0-17.0","task_version":"prescreen-v0.3","browser_interactions":0},{"responses":{"01":"No","02":"No","03":"Yes","03_ages_14":"14","03_ages_15":"15","03_ages_16":"16","03_ages_17":"17","04":"Yes","04_ages_9":"9","04_ages_10":"10","04_ages_11":"11","04_ages_12":"12","04_ages_13":"13","04_ages_14":"14","04_ages_15":"15","04_ages_16":"16","04_ages_17":"17","04_ages_18":"18","05":"Yes","05_ages_18":"18","06":"Yes","06_ages_17":"17","07":"Yes","07_ages_7":"7","07_ages_8":"8","07_ages_9":"9","07_ages_10":"10","07_ages_11":"11","07_ages_12":"12","07_ages_13":"13","07_ages_14":"14","07_ages_15":"15","07_ages_16":"16","07_ages_17":"17","08":"No"},"rt":63341.199999928474,"item_order":[0,1,2,3,4,5,6,7],"radio_events":[4693.199999928474,6502.399999976158,9210.299999952316,17684.099999904633,32612.099999904633,43289.09999990463,53767.199999928474,62688.89999997616],"checkbox_events":[13302.099999904633,13640.199999928474,13997.899999976158,14408,23035.199999928474,24115.599999904633,24442.599999904633,24714.199999928474,26520.099999904633,26849,27185.5,28501.099999904633,28890.199999928474,31438.899999976158,38087.89999997616,40272.89999997616,40465.799999952316,45380.299999952316,55262.299999952316,55631.09999990463,55976.699999928474,56977.699999928474,57297.89999997616,57696.699999928474,58078.39999997616,59358.699999928474,59731.799999952316,60174.199999928474,60581.699999928474],"key_events":[4693.199999928474,6502.399999976158,9210.299999952316,13302.099999904633,13640.199999928474,13997.899999976158,14408,17027.099999904633,17684.099999904633,23035.199999928474,24115.599999904633,24442.599999904633,24714.199999928474,25007.799999952316,25317,25959,26520.099999904633,26849,27185.5,27525.899999976158,28014.099999904633,28501.099999904633,28890.199999928474,31438.899999976158,32612.099999904633,38087.89999997616,40272.89999997616,40465.799999952316,43289.09999990463,45380.299999952316,53767.199999928474,55262.299999952316,55631.09999990463,55976.699999928474,56330,56977.699999928474,57297.89999997616,57696.699999928474,58078.39999997616,58486.39999997616,58813.09999990463,59358.699999928474,59731.799999952316,60174.199999928474,60581.699999928474,62688.89999997616,63339.09999990463],"mouse_events":[],"honeypot":0,"survey":"mace","page":10,"trial_type":"survey-mace","trial_index":18,"time_elapsed":964301,"internal_node_id":"0.0-18.0","task_version":"prescreen-v0.3","browser_interactions":0,"instructed":0},{"rt":25379,"trial_type":"mental-health-alert","trial_index":19,"time_elapsed":989683,"internal_node_id":"0.0-19.0","task_version":"prescreen-v0.3","interactions":"[{\"event\":\"blur\",\"trial\":1,\"time\":31254},{\"event\":\"focus\",\"trial\":1,\"time\":61778},{\"event\":\"blur\",\"trial\":2,\"time\":95731},{\"event\":\"focus\",\"trial\":2,\"time\":97361},{\"event\":\"blur\",\"trial\":2,\"time\":106608},{\"event\":\"focus\",\"trial\":2,\"time\":109282}]"}]