[{"view_history":[{"page_index":0,"viewing_time":3537.2999999523163},{"page_index":1,"viewing_time":2941.800000011921},{"page_index":2,"viewing_time":2946.100000023842},{"page_index":3,"viewing_time":781.8999999761581}],"rt":10207.699999988079,"trial_type":"instructions","trial_index":0,"time_elapsed":10231,"internal_node_id":"0.0-0.0","task_version":"prescreen-v0.3"},{"rt":14591.899999976158,"responses":{"age":"21","gender-categorical":"Female","gender-free-response":"","ethnicity":"Not Hispanic or Latino","race":["White"],"education":"Some college"},"trial_type":"survey-demo","trial_index":1,"time_elapsed":24826,"internal_node_id":"0.0-1.0","task_version":"prescreen-v0.3"},{"responses":{"Q09":"1","Q13":"2","Q05":"1","Q08":"2","Q01":"2","Q06":"0","Q11":"1","Q18":"3","Q21":"3","Q02":"3","Q19":"2","Q17":"2","Q07":"1","Q03":"2","Q20":"2","Q16":"3","Q15":"3","Q12":"2","Q04":"2","Q10":"1","Q14":"3"},"rt":130443.59999996424,"item_order":[8,12,4,7,0,5,10,17,20,1,18,16,6,2,19,15,14,11,3,9,13],"radio_events":[14763.899999976158,17878.899999976158,23611.899999976158,24594.799999952316,31896.899999976158,34676.89999997616,36888.89999997616,40442.799999952316,42897.89999997616,52225.89999997616,57558.799999952316,89602,92314.89999997616,96320.89999997616,102535,107144.79999995232,109624.89999997616,112663.89999997616,114768.79999995232,118781.89999997616,122384.89999997616,126225,130083.79999995232],"key_events":[],"mouse_events":[14763.899999976158,17257.799999952316,17878.899999976158,23611.899999976158,24594.799999952316,31896.899999976158,34676.89999997616,36888.89999997616,40442.799999952316,42897.89999997616,51489,52225.89999997616,57558.799999952316,87879.89999997616,89602,92314.89999997616,96320.89999997616,102535,106664.89999997616,107144.79999995232,109624.89999997616,110586.09999996424,112663.89999997616,114768.79999995232,118781.89999997616,121797,122384.89999997616,126225,130083.79999995232,130442.09999996424],"straightlining":0.42857142857142855,"zigzagging":0.5,"honeypot":0,"survey":"sns","trial_type":"survey-template","trial_index":2,"time_elapsed":155275,"internal_node_id":"0.0-2.0","task_version":"prescreen-v0.3","browser_interactions":2,"infrequency":0},{"responses":{"Q09":"1","Q11":"2","Q08":"1","Q01":"3","Q10":"1","Q13":"0","Q02":"2","Q06":"2","Q07":"2","Q03":"2","Q05":"1","Q12":"0","Q04":"3"},"rt":50800,"item_order":[8,10,7,0,9,12,1,5,6,2,4,11,3],"radio_events":[4664.100000023842,9704.100000023842,12490.100000023842,14804.100000023842,16972.30000001192,21248.100000023842,26331.100000023842,28736.100000023842,34949,36664,40783.10000002384,43580.10000002384,45711.10000002384,50176.10000002384],"key_events":[],"mouse_events":[4664.100000023842,9704.100000023842,12490.100000023842,14804.100000023842,16972.30000001192,20117.100000023842,21248.100000023842,26331.100000023842,28736.100000023842,34949,36664,39734.10000002384,40783.10000002384,43580.10000002384,44634,45711.10000002384,50176.10000002384,50799.10000002384],"straightlining":0.38461538461538464,"zigzagging":0.5,"honeypot":0,"survey":"bisbas","trial_type":"survey-template","trial_index":3,"time_elapsed":206077,"internal_node_id":"0.0-3.0","task_version":"prescreen-v0.3","browser_interactions":0,"infrequency":0},{"responses":{"Q01":"2","Q02":"1","Q03":"1"},"rt":21451,"radio_events":[3565.599999964237,6945.5,12624.5,16008.5],"key_events":[],"mouse_events":[3565.599999964237,5424.5,6945.5,12624.5,16008.5,21450.5],"survey":"map","page":1,"trial_type":"survey-map","trial_index":4,"time_elapsed":227530,"internal_node_id":"0.0-4.0","task_version":"prescreen-v0.3","browser_interactions":0},{"responses":{"Q04":"2","Q05":"1","Q06":"1"},"rt":13615.100000023842,"radio_events":[8145.600000023842,11186.699999988079,12862.600000023842],"key_events":[],"mouse_events":[3959.399999976158,8145.600000023842,11186.699999988079,12862.600000023842,13614.699999988079],"survey":"map","page":2,"trial_type":"survey-map","trial_index":5,"time_elapsed":241147,"internal_node_id":"0.0-5.0","task_version":"prescreen-v0.3","browser_interactions":0},{"responses":{"Q07":"3","Q08":"0","Q09":"1"},"rt":10407.400000035763,"radio_events":[3572,7075.900000035763,9675],"key_events":[],"mouse_events":[3572,7075.900000035763,9675,10406.900000035763],"survey":"map","page":3,"trial_type":"survey-map","trial_index":6,"time_elapsed":251556,"internal_node_id":"0.0-6.0","task_version":"prescreen-v0.3","browser_interactions":0},{"responses":{"Q10":"1","Q11":"2","Q12":"1","Q13":"2","Q16":"0","Q14":"0","Q15":"1"},"rt":32085.399999976158,"radio_events":[4458.699999988079,5356.699999988079,8511.600000023842,11162.800000011921,13195.800000011921,16327.600000023842,28464.69999998808,30343.69999998808],"key_events":[],"mouse_events":[4458.699999988079,5356.699999988079,7464.800000011921,8511.600000023842,11162.800000011921,13195.800000011921,16327.600000023842,28464.69999998808,30343.69999998808,32084.80000001192],"survey":"map","page":4,"trial_type":"survey-map","trial_index":7,"time_elapsed":283644,"internal_node_id":"0.0-7.0","task_version":"prescreen-v0.3","browser_interactions":0,"infrequency":0},{"view_history":[{"page_index":0,"viewing_time":1633.6000000238419},{"page_index":1,"viewing_time":2525.899999976158}],"rt":4160,"trial_type":"instructions","trial_index":8,"time_elapsed":287805,"internal_node_id":"0.0-8.0","task_version":"prescreen-v0.3"},{"responses":{"01":"No","02":"No","03":"No","04":"No","05":"No","06":"No"},"rt":38671.90000003576,"item_order":[0,1,2,3,4,5],"radio_events":[14214.900000035763,22489.69999998808,23242.600000023842,29661.600000023842,31426.69999998808,33363.69999998808],"checkbox_events":[],"key_events":[],"mouse_events":[0.10000002384185791,14214.900000035763,22489.69999998808,23242.600000023842,29661.600000023842,31426.69999998808,32916.69999998808,33363.69999998808,38669.80000001192],"honeypot":0,"survey":"mace","page":1,"trial_type":"survey-mace","trial_index":9,"time_elapsed":326482,"internal_node_id":"0.0-9.0","task_version":"prescreen-v0.3","browser_interactions":0},{"responses":{"01":"No","02":"No","03":"Yes","03_ages_4":"4","03_ages_5":"5","03_ages_6":"6","04":"Yes","04_ages_4":"4","04_ages_5":"5","04_ages_6":"6","05":"No","06":"No","07":"No","08":"No"},"rt":31568.100000023842,"item_order":[0,1,2,3,4,5,6,7],"radio_events":[2673.399999976158,3307.399999976158,4113.399999976158,7280.399999976158,21899.30000001192,27400.399999976158,28544.399999976158,29853.399999976158,30858.399999976158],"checkbox_events":[13416.699999988079,15034.5,15424.5,23897.399999976158,24188.5,24435.5],"key_events":[],"mouse_events":[2673.399999976158,3307.399999976158,4113.399999976158,7280.399999976158,13416.699999988079,15034.5,15424.5,21899.30000001192,23897.399999976158,24188.5,24435.5,27400.399999976158,28544.399999976158,29495.5,29853.399999976158,30858.399999976158,31565.5],"honeypot":0,"survey":"mace","page":2,"trial_type":"survey-mace","trial_index":10,"time_elapsed":358053,"internal_node_id":"0.0-10.0","task_version":"prescreen-v0.3","browser_interactions":0},{"responses":{"01":"No","02":"No","03":"No","04":"No"},"rt":9847.5,"item_order":[0,1,2,3],"radio_events":[5737.199999988079,7437.400000035763,8506.199999988079,9237.199999988079],"checkbox_events":[],"key_events":[],"mouse_events":[5737.199999988079,7437.400000035763,8506.199999988079,9237.199999988079,9846.199999988079],"honeypot":0,"survey":"mace","page":3,"trial_type":"survey-mace","trial_index":11,"time_elapsed":367903,"internal_node_id":"0.0-11.0","task_version":"prescreen-v0.3","browser_interactions":0},{"responses":{"01":"No","02":"No"},"rt":4834.300000011921,"item_order":[0,1],"radio_events":[2324.5,3980.400000035763],"checkbox_events":[],"key_events":[],"mouse_events":[2324.5,3315.5,3980.400000035763,4833.5],"honeypot":0,"survey":"mace","page":4,"trial_type":"survey-mace","trial_index":12,"time_elapsed":372740,"internal_node_id":"0.0-12.0","task_version":"prescreen-v0.3","browser_interactions":0},{"responses":{"01":"No","02":"No","03":"No","04":"No","05":"No"},"rt":25793.80000001192,"item_order":[0,1,2,3,4],"radio_events":[15429.100000023842,18494.100000023842,21478.900000035763,24068.100000023842,25200],"checkbox_events":[],"key_events":[],"mouse_events":[15429.100000023842,18494.100000023842,21478.900000035763,24068.100000023842,25200,25792.100000023842],"honeypot":0,"survey":"mace","page":5,"trial_type":"survey-mace","trial_index":13,"time_elapsed":398536,"internal_node_id":"0.0-13.0","task_version":"prescreen-v0.3","browser_interactions":0},{"responses":{"01":"Yes","01_ages_8":"8","01_ages_9":"9","01_ages_10":"10","01_ages_11":"11","01_ages_12":"12","01_ages_13":"13","01_ages_14":"14","02":"Yes","02_ages_8":"8","02_ages_9":"9","02_ages_10":"10","02_ages_11":"11","02_ages_12":"12","02_ages_13":"13","02_ages_14":"14","03":"Yes","03_ages_10":"10","03_ages_11":"11","03_ages_12":"12","03_ages_13":"13","03_ages_14":"14","04":"Yes","04_ages_8":"8","04_ages_9":"9","04_ages_10":"10","04_ages_11":"11","04_ages_12":"12","04_ages_13":"13","05":"No"},"rt":62584.60000002384,"item_order":[0,1,2,3,4],"radio_events":[6130.5,29982.399999976158,40657.30000001192,48446.5,61676.5],"checkbox_events":[11327.5,11731.5,13361.5,13804.5,14726.5,15433.5,18422.399999976158,32777.39999997616,33594.5,34095.60000002384,34472.19999998808,35476.60000002384,36113.5,36850.60000002384,42963.5,43306.5,44060.5,44647.5,45762.5,50716.5,51403.5,51680.5,52077.60000002384,52392.60000002384,53119.5],"key_events":[],"mouse_events":[5369.300000011921,6130.5,11327.5,11731.5,12167.5,12609.399999976158,12882.5,13361.5,13804.5,14726.5,15050.699999988079,15433.5,18422.399999976158,29982.399999976158,31959.399999976158,32777.39999997616,33096.5,33594.5,34095.60000002384,34472.19999998808,35004.39999997616,35476.60000002384,36113.5,36850.60000002384,40657.30000001192,42963.5,43306.5,44060.5,44647.5,45762.5,48446.5,50716.5,51052.19999998808,51403.5,51680.5,52077.60000002384,52392.60000002384,52678.5,53119.5,61676.5,62582.89999997616],"honeypot":0,"survey":"mace","page":6,"trial_type":"survey-mace","trial_index":14,"time_elapsed":461124,"internal_node_id":"0.0-14.0","task_version":"prescreen-v0.3","browser_interactions":0},{"responses":{"01":"No","02":"No","03":"No","04":"No","05":"No","06":"No","07":"No"},"rt":17710.899999976158,"item_order":[0,1,2,3,4,5,6],"radio_events":[4783.5,8149.399999976158,9148.5,10386.5,11601.600000023842,16096.600000023842,17135.5],"checkbox_events":[],"key_events":[],"mouse_events":[4783.5,8149.399999976158,9148.5,10386.5,11601.600000023842,16096.600000023842,17135.5,17708.600000023842],"honeypot":0,"survey":"mace","page":7,"trial_type":"survey-mace","trial_index":15,"time_elapsed":478838,"internal_node_id":"0.0-15.0","task_version":"prescreen-v0.3","browser_interactions":0},{"responses":{"01":"No","02":"Yes","02_ages_7":"7","02_ages_8":"8","02_ages_9":"9","02_ages_10":"10","02_ages_11":"11","02_ages_12":"12","02_ages_13":"13","02_ages_14":"14","02_ages_15":"15","02_ages_16":"16","02_ages_17":"17","02_ages_18":"18","03":"Yes","03_ages_7":"7","03_ages_8":"8","03_ages_9":"9","03_ages_10":"10","03_ages_11":"11","03_ages_12":"12","03_ages_13":"13","03_ages_14":"14","03_ages_15":"15","03_ages_16":"16","03_ages_17":"17","03_ages_18":"18","04":"Yes","04_ages_7":"7","04_ages_8":"8","04_ages_9":"9","04_ages_10":"10","04_ages_11":"11","04_ages_12":"12","04_ages_13":"13","04_ages_14":"14","04_ages_15":"15","04_ages_16":"16","04_ages_17":"17","04_ages_18":"18"},"rt":50909.39999997616,"item_order":[0,1,2,3],"radio_events":[8608.899999976158,10366.800000011921,30860.80000001192,43550.69999998808],"checkbox_events":[17025.899999976158,17862.80000001192,18949.899999976158,19484.80000001192,19911.80000001192,20718.80000001192,21120.599999964237,21493.69999998808,21836.899999976158,22816.80000001192,23238.80000001192,23814.80000001192,24267.80000001192,24695.80000001192,33430.69999998808,33921.80000001192,34405.80000001192,34847.80000001192,35234.80000001192,36001.89999997616,36303.89999997616,36736.80000001192,37387.59999996424,37646.80000001192,38472.89999997616,38757.80000001192,44880.80000001192,45382.89999997616,45812.89999997616,46832.80000001192,47194.89999997616,47901.80000001192,48356.59999996424,48722.89999997616,49090.80000001192,49822.80000001192,50092.69999998808,50381.69999998808],"key_events":[],"mouse_events":[8608.899999976158,10366.800000011921,17025.899999976158,17862.80000001192,18949.899999976158,19484.80000001192,19911.80000001192,20305.599999964237,20718.80000001192,21120.599999964237,21493.69999998808,21836.899999976158,22192.69999998808,22816.80000001192,23238.80000001192,23814.80000001192,24267.80000001192,24695.80000001192,30860.80000001192,33430.69999998808,33921.80000001192,34405.80000001192,34847.80000001192,35234.80000001192,35671,36001.89999997616,36303.89999997616,36736.80000001192,37387.59999996424,37646.80000001192,38212.59999996424,38472.89999997616,38757.80000001192,42414,43054.69999998808,43550.69999998808,44880.80000001192,45382.89999997616,45812.89999997616,46334.89999997616,46832.80000001192,47194.89999997616,47901.80000001192,48356.59999996424,48722.89999997616,49090.80000001192,49822.80000001192,50092.69999998808,50381.69999998808,50908.09999996424],"honeypot":0,"survey":"mace","page":8,"trial_type":"survey-mace","trial_index":16,"time_elapsed":529750,"internal_node_id":"0.0-16.0","task_version":"prescreen-v0.3","browser_interactions":0},{"responses":{"01":"Yes","01_ages_4":"4","01_ages_5":"5","01_ages_6":"6","01_ages_7":"7","01_ages_8":"8","01_ages_9":"9","01_ages_10":"10","01_ages_11":"11","01_ages_12":"12","01_ages_13":"13","01_ages_14":"14","01_ages_15":"15","01_ages_16":"16","01_ages_17":"17","01_ages_18":"18","02":"Yes","02_ages_4":"4","02_ages_5":"5","02_ages_6":"6","02_ages_7":"7","02_ages_8":"8","02_ages_9":"9","02_ages_10":"10","02_ages_11":"11","02_ages_12":"12","02_ages_13":"13","03":"Yes","03_ages_1":"1","03_ages_2":"2","03_ages_3":"3","03_ages_4":"4","03_ages_5":"5","03_ages_6":"6","03_ages_7":"7","03_ages_8":"8","03_ages_9":"9","03_ages_10":"10","03_ages_11":"11","03_ages_12":"12","03_ages_13":"13","03_ages_14":"14","03_ages_15":"15","03_ages_16":"16","03_ages_17":"17","03_ages_18":"18","04":"Yes","04_ages_1":"1","04_ages_2":"2","04_ages_3":"3","04_ages_4":"4","04_ages_5":"5","04_ages_6":"6","04_ages_7":"7","04_ages_8":"8","04_ages_9":"9","04_ages_10":"10","04_ages_11":"11","04_ages_12":"12","04_ages_13":"13","04_ages_14":"14","04_ages_15":"15","04_ages_16":"16","04_ages_17":"17","04_ages_18":"18"},"rt":83760.40000003576,"item_order":[0,1,2,3],"radio_events":[3241,34885.80000001192,50078,66051],"checkbox_events":[8356,9079.900000035763,9722.900000035763,10184,10496.900000035763,10977,11284.100000023842,11549,12185,12727,13014,13787.900000035763,15714.900000035763,16860.900000035763,18154,18694.100000023842,19206.900000035763,19730,20242.600000023842,20657,22139,27586,29410,29844.900000035763,30482.100000023842,35998,36329,36594.10000002384,37137,37734.90000003576,38061,38397,38728,39943,41559,51014,51390,52105,52457.80000001192,53172.10000002384,53689,53998,54866,55497.10000002384,56275,56704,57114.10000002384,57444.90000003576,58326,58633,70301.10000002384,71064,71311.10000002384,73217,73622.30000001192,74149,74866.10000002384,75132.80000001192,76102.80000001192,76361,76689.10000002384,77090,77409.10000002384,78655.10000002384,78999.69999998808,80036.10000002384,80554,80797,81351,82058,82351,82815,83398],"key_events":[],"mouse_events":[2620.900000035763,3241,8356,9079.900000035763,9722.900000035763,10184,10496.900000035763,10977,11284.100000023842,11549,12185,12727,13014,13787.900000035763,15714.900000035763,16860.900000035763,17136,17656.900000035763,18154,18694.100000023842,19206.900000035763,19730,20242.600000023842,20657,22139,27178,27586,29410,29844.900000035763,30482.100000023842,34885.80000001192,35998,36329,36594.10000002384,37137,37398,37734.90000003576,38061,38397,38728,39413,39943,41559,49225.90000003576,50078,51014,51390,52105,52457.80000001192,52813,53172.10000002384,53689,53998,54361,54866,55497.10000002384,56275,56704,57114.10000002384,57444.90000003576,58326,58633,62691.90000003576,65183.90000003576,66051,70301.10000002384,70552.90000003576,71064,71311.10000002384,73217,73622.30000001192,74149,74546,74866.10000002384,75132.80000001192,75720.10000002384,76102.80000001192,76361,76689.10000002384,77090,77409.10000002384,77758.10000002384,78235.90000003576,78655.10000002384,78999.69999998808,79649,80036.10000002384,80554,80797,81351,81709.10000002384,82058,82351,82815,83398,83759.10000002384],"honeypot":0,"survey":"mace","page":9,"trial_type":"survey-mace","trial_index":17,"time_elapsed":613513,"internal_node_id":"0.0-17.0","task_version":"prescreen-v0.3","browser_interactions":4},{"responses":{"01":"No","02":"No","03":"No","04":"No","05":"No","06":"Yes","06_ages_17":"17","07":"No","08":"No"},"rt":54136.5,"item_order":[0,1,2,3,4,5,6,7],"radio_events":[3504.7999999523163,4771.799999952316,6893.799999952316,10314.699999988079,16283.699999988079,32951.59999996424,36279.69999998808,43325.69999998808,44325.69999998808,53741.799999952316],"checkbox_events":[17697.69999998808],"key_events":[],"mouse_events":[3504.7999999523163,4771.799999952316,6451.799999952316,6893.799999952316,10314.699999988079,16283.699999988079,17697.69999998808,32951.59999996424,36279.69999998808,43325.69999998808,44325.69999998808,53741.799999952316,54133.89999997616],"honeypot":0,"survey":"mace","page":10,"trial_type":"survey-mace","trial_index":18,"time_elapsed":667653,"internal_node_id":"0.0-18.0","task_version":"prescreen-v0.3","browser_interactions":0,"instructed":0},{"rt":2529.699999988079,"trial_type":"mental-health-alert","trial_index":19,"time_elapsed":670184,"internal_node_id":"0.0-19.0","task_version":"prescreen-v0.3","interactions":"[{\"event\":\"blur\",\"trial\":2,\"time\":29083},{\"event\":\"focus\",\"trial\":2,\"time\":30747},{\"event\":\"blur\",\"trial\":17,\"time\":589197},{\"event\":\"focus\",\"trial\":17,\"time\":589837},{\"event\":\"blur\",\"trial\":17,\"time\":590136},{\"event\":\"focus\",\"trial\":17,\"time\":592362}]"}]