[{"view_history":[{"page_index":0,"viewing_time":2026.5999999046326},{"page_index":1,"viewing_time":5982},{"page_index":2,"viewing_time":3127.2999999523163},{"page_index":3,"viewing_time":1284.9000000953674}],"rt":12421.5,"trial_type":"instructions","trial_index":0,"time_elapsed":12426,"internal_node_id":"0.0-0.0","task_version":"prescreen-v0.3"},{"rt":21546.900000095367,"responses":{"age":"18","gender-categorical":"Other","gender-free-response":"non-binary","ethnicity":"Not Hispanic or Latino","race":["White"],"education":"High school"},"trial_type":"survey-demo","trial_index":1,"time_elapsed":34007,"internal_node_id":"0.0-1.0","task_version":"prescreen-v0.3"},{"responses":{"Q06":"0","Q03":"2","Q05":"1","Q13":"2","Q16":"1","Q19":"0","Q12":"1","Q09":"0","Q17":"1","Q07":"2","Q10":"0","Q02":"2","Q20":"1","Q14":"3","Q18":"1","Q04":"2","Q15":"2","Q21":"3","Q08":"1","Q01":"1","Q11":"0"},"rt":103096,"item_order":[5,2,4,12,15,18,11,8,16,6,9,1,19,13,17,3,14,20,7,0,10],"radio_events":[6675.400000095367,22035,25687.099999904633,28752.400000095367,34314.5,37579.799999952316,41595.799999952316,49808.09999990463,51671.09999990463,60064.200000047684,63744,65766.20000004768,71751.79999995232,75018.70000004768,79945.90000009537,83151.09999990463,85774.20000004768,88853.20000004768,91115,92934,101013.70000004768],"key_events":[],"mouse_events":[6675.400000095367,22035,25687.099999904633,28752.400000095367,34314.5,37579.799999952316,41595.799999952316,45633,49808.09999990463,51671.09999990463,60064.200000047684,63744,65766.20000004768,71751.79999995232,75018.70000004768,79945.90000009537,83151.09999990463,85774.20000004768,88853.20000004768,91115,92934,94379.29999995232,101013.70000004768,103094.29999995232],"straightlining":0.38095238095238093,"zigzagging":0.6,"honeypot":0,"survey":"sns","trial_type":"survey-template","trial_index":2,"time_elapsed":137107,"internal_node_id":"0.0-2.0","task_version":"prescreen-v0.3","browser_interactions":0,"infrequency":0},{"responses":{"Q01":"2","Q11":"1","Q12":"0","Q08":"2","Q07":"1","Q02":"3","Q04":"3","Q13":"0","Q09":"1","Q03":"3","Q06":"2","Q10":"1","Q05":"2"},"rt":82990.90000009537,"item_order":[0,10,11,7,6,1,3,12,8,2,5,9,4],"radio_events":[18154.099999904633,34311.40000009537,42725.09999990463,45841.299999952316,50813.799999952316,54675,57396.299999952316,61239.40000009537,65099.09999990463,66627.90000009537,71004.70000004768,76309.29999995232,79872,81917.29999995232],"key_events":[],"mouse_events":[18154.099999904633,34311.40000009537,42725.09999990463,45841.299999952316,50813.799999952316,54675,57396.299999952316,58271,61239.40000009537,65099.09999990463,66627.90000009537,71004.70000004768,76309.29999995232,79872,81917.29999995232,82989.79999995232],"straightlining":0.3076923076923077,"zigzagging":0.6666666666666666,"honeypot":0,"survey":"bisbas","trial_type":"survey-template","trial_index":3,"time_elapsed":220101,"internal_node_id":"0.0-3.0","task_version":"prescreen-v0.3","browser_interactions":2,"infrequency":0},{"responses":{"Q01":"3","Q02":"2","Q03":"3"},"rt":18511.599999904633,"radio_events":[7384.700000047684,10716.399999856949,17502.89999985695],"key_events":[],"mouse_events":[7384.700000047684,10716.399999856949,17502.89999985695,18510.700000047684],"survey":"map","page":1,"trial_type":"survey-map","trial_index":4,"time_elapsed":238616,"internal_node_id":"0.0-4.0","task_version":"prescreen-v0.3","browser_interactions":0},{"responses":{"Q04":"4","Q05":"3","Q06":"3"},"rt":12209.299999952316,"radio_events":[3331.600000143051,8990.600000143051,11114],"key_events":[],"mouse_events":[3331.600000143051,8990.600000143051,11114,12208.799999952316],"survey":"map","page":2,"trial_type":"survey-map","trial_index":5,"time_elapsed":250827,"internal_node_id":"0.0-5.0","task_version":"prescreen-v0.3","browser_interactions":0},{"responses":{"Q07":"0","Q08":"4","Q09":"2"},"rt":17679,"radio_events":[3904.5,10602.900000095367,12450.900000095367,16772.599999904633],"key_events":[],"mouse_events":[3904.5,10602.900000095367,12450.900000095367,16772.599999904633,17678.099999904633],"survey":"map","page":3,"trial_type":"survey-map","trial_index":6,"time_elapsed":268509,"internal_node_id":"0.0-6.0","task_version":"prescreen-v0.3","browser_interactions":0},{"responses":{"Q10":"2","Q11":"1","Q12":"2","Q13":"0","Q16":"0","Q14":"3","Q15":"2"},"rt":178741.09999990463,"radio_events":[5856.399999856949,45716.09999990463,54098.39999985695,164773.5,168373.20000004768,174569.39999985695,177226.79999995232],"key_events":[],"mouse_events":[4051.7999999523163,5856.399999856949,12787.200000047684,45716.09999990463,54098.39999985695,135209.89999985695,139011.20000004768,139517,157315.70000004768,164773.5,168373.20000004768,174569.39999985695,177226.79999995232,178740.39999985695],"survey":"map","page":4,"trial_type":"survey-map","trial_index":7,"time_elapsed":447252,"internal_node_id":"0.0-7.0","task_version":"prescreen-v0.3","browser_interactions":2,"infrequency":0},{"view_history":[{"page_index":0,"viewing_time":2144.7999999523163},{"page_index":1,"viewing_time":4811.399999856949}],"rt":6957,"trial_type":"instructions","trial_index":8,"time_elapsed":454210,"internal_node_id":"0.0-8.0","task_version":"prescreen-v0.3"},{"responses":{"01":"Yes","01_ages_4":"4","01_ages_5":"5","01_ages_6":"6","01_ages_7":"7","01_ages_8":"8","01_ages_9":"9","01_ages_10":"10","01_ages_11":"11","01_ages_12":"12","01_ages_13":"13","01_ages_14":"14","01_ages_15":"15","01_ages_16":"16","01_ages_17":"17","01_ages_18":"18","02":"Yes","02_ages_4":"4","02_ages_5":"5","02_ages_6":"6","02_ages_7":"7","02_ages_8":"8","02_ages_9":"9","02_ages_10":"10","02_ages_11":"11","02_ages_12":"12","02_ages_13":"13","02_ages_14":"14","02_ages_15":"15","02_ages_16":"16","02_ages_17":"17","02_ages_18":"18","03":"Yes","03_ages_17":"17","04":"Yes","04_ages_17":"17","04_ages_18":"18","05":"No","06":"Yes","06_ages_8":"8","06_ages_16":"16","06_ages_17":"17"},"rt":116135.79999995232,"item_order":[0,1,2,3,4,5],"radio_events":[5384.5,24122.5,40010.39999985695,49541.699999809265,50655.59999990463,92758.19999980927],"checkbox_events":[9735.899999856949,12267.799999952316,12904.599999904633,13485.199999809265,14641.299999952316,15345.899999856949,15878.599999904633,16362.899999856949,17186,17739.299999952316,18741.299999952316,19710.599999904633,20222.5,20727,21355.599999904633,25478.39999985695,26044.599999904633,26702.099999904633,27387.699999809265,28564.599999904633,31109.5,31676.299999952316,32313.5,32853.699999809265,33420.39999985695,34014.699999809265,35364.39999985695,35889.89999985695,36381.299999952316,36912.39999985695,44119.89999985695,44617.5,45958.799999952316,87515.29999995232,89681.39999985695,112633.39999985695],"key_events":[],"mouse_events":[0.09999990463256836,5384.5,9735.899999856949,12267.799999952316,12904.599999904633,13485.199999809265,14142.899999856949,14641.299999952316,15345.899999856949,15878.599999904633,16362.899999856949,17186,17739.299999952316,18741.299999952316,19710.599999904633,20222.5,20727,21355.599999904633,24122.5,25478.39999985695,26044.599999904633,26702.099999904633,27387.699999809265,28018,28564.599999904633,29089.89999985695,31109.5,31676.299999952316,32313.5,32853.699999809265,33420.39999985695,34014.699999809265,34728.699999809265,35364.39999985695,35889.89999985695,36381.299999952316,36912.39999985695,40010.39999985695,41781.09999990463,44119.89999985695,44617.5,45958.799999952316,49541.699999809265,50655.59999990463,87515.29999995232,89681.39999985695,92758.19999980927,112633.39999985695,113896.09999990463,114138.69999980927,116133.79999995232],"honeypot":0,"survey":"mace","page":1,"trial_type":"survey-mace","trial_index":9,"time_elapsed":570353,"internal_node_id":"0.0-9.0","task_version":"prescreen-v0.3","browser_interactions":2},{"responses":{"01":"Yes","01_ages_5":"5","01_ages_6":"6","01_ages_7":"7","01_ages_8":"8","02":"No","03":"Yes","03_ages_4":"4","03_ages_5":"5","03_ages_6":"6","03_ages_7":"7","04":"No","05":"No","06":"Yes","06_ages_8":"8","06_ages_9":"9","06_ages_10":"10","06_ages_11":"11","06_ages_12":"12","06_ages_13":"13","06_ages_14":"14","06_ages_15":"15","06_ages_16":"16","07":"Yes","07_ages_8":"8","07_ages_9":"9","07_ages_10":"10","07_ages_11":"11","07_ages_12":"12","08":"No"},"rt":111642.69999980927,"item_order":[0,1,2,3,4,5,6,7],"radio_events":[3307.0999999046326,9944.5,52827.799999952316,70326.19999980927,71927.09999990463,89017,107152.5,108606.39999985695],"checkbox_events":[43299.89999985695,43690.59999990463,45388.299999952316,45788.299999952316,46363.699999809265,47480.5,50140.199999809265,51110.299999952316,55291.59999990463,55744.799999952316,57405.09999990463,57796.199999809265,59346.299999952316,60256.89999985695,61417.299999952316,62561.09999990463,81764.79999995232,82721.19999980927,83680.5,84733.79999995232,85858.19999980927,91056.89999985695,92419.69999980927,92807.89999985695,93711.89999985695,95014.39999985695,95942.69999980927,97060.19999980927,97990.69999980927,98978.29999995232,100571.89999985695,100985.29999995232,101419.89999985695,102675.79999995232],"key_events":[],"mouse_events":[3307.0999999046326,9944.5,43299.89999985695,43690.59999990463,45388.299999952316,45788.299999952316,46363.699999809265,47480.5,50140.199999809265,51110.299999952316,52827.799999952316,55291.59999990463,55744.799999952316,57405.09999990463,57796.199999809265,58961.39999985695,59346.299999952316,60256.89999985695,61417.299999952316,62178.59999990463,62561.09999990463,65105,65695,70326.19999980927,71927.09999990463,81764.79999995232,82721.19999980927,83680.5,84733.79999995232,85858.19999980927,89017,91056.89999985695,92419.69999980927,92807.89999985695,93711.89999985695,95014.39999985695,95942.69999980927,97060.19999980927,97990.69999980927,98978.29999995232,100571.89999985695,100985.29999995232,101419.89999985695,102675.79999995232,107152.5,108606.39999985695,109568.5,111640.69999980927],"honeypot":0,"survey":"mace","page":2,"trial_type":"survey-mace","trial_index":10,"time_elapsed":682001,"internal_node_id":"0.0-10.0","task_version":"prescreen-v0.3","browser_interactions":0},{"responses":{"01":"No","02":"No","03":"No","04":"No"},"rt":14341.399999856949,"item_order":[0,1,2,3],"radio_events":[5959,10081,11845.399999856949,12961.299999952316],"checkbox_events":[],"key_events":[],"mouse_events":[5959,10081,11845.399999856949,12961.299999952316,14340.099999904633],"honeypot":0,"survey":"mace","page":3,"trial_type":"survey-mace","trial_index":11,"time_elapsed":696345,"internal_node_id":"0.0-11.0","task_version":"prescreen-v0.3","browser_interactions":0},{"responses":{"01":"No","02":"Yes","02_ages_15":"15","02_ages_16":"16"},"rt":19711.39999985695,"item_order":[0,1],"radio_events":[6004,13159.399999856949],"checkbox_events":[15298.099999904633,16262.099999904633],"key_events":[],"mouse_events":[6004,13159.399999856949,15298.099999904633,16262.099999904633,19710.699999809265],"honeypot":0,"survey":"mace","page":4,"trial_type":"survey-mace","trial_index":12,"time_elapsed":716058,"internal_node_id":"0.0-12.0","task_version":"prescreen-v0.3","browser_interactions":0},{"responses":{"01":"Yes","01_ages_2":"2","02":"No","03":"No","04":"No","05":"No"},"rt":51110,"item_order":[0,1,2,3,4],"radio_events":[13686.400000095367,14926.799999952316,20212.700000047684,22393.299999952316,29846.5],"checkbox_events":[46400.299999952316],"key_events":[],"mouse_events":[13686.400000095367,14926.799999952316,20212.700000047684,22393.299999952316,29846.5,46400.299999952316,51108.10000014305],"honeypot":0,"survey":"mace","page":5,"trial_type":"survey-mace","trial_index":13,"time_elapsed":767172,"internal_node_id":"0.0-13.0","task_version":"prescreen-v0.3","browser_interactions":0},{"responses":{"01":"Yes","01_ages_7":"7","01_ages_8":"8","01_ages_9":"9","02":"Yes","02_ages_7":"7","02_ages_8":"8","02_ages_9":"9","03":"Yes","03_ages_16":"16","03_ages_17":"17","03_ages_18":"18","04":"Yes","04_ages_4":"4","04_ages_5":"5","04_ages_6":"6","04_ages_7":"7","04_ages_8":"8","04_ages_9":"9","04_ages_10":"10","04_ages_11":"11","04_ages_12":"12","04_ages_13":"13","05":"No"},"rt":41427.90000009537,"item_order":[0,1,2,3,4],"radio_events":[9229.900000095367,14921.700000047684,23010.5,28658.800000190735,40714.700000047684],"checkbox_events":[10746.5,12174.700000047684,13432.300000190735,17642.700000047684,19291.200000047684,20703,24433.700000047684,25546.400000095367,27082.800000190735,30367.300000190735,31523.400000095367,32193.900000095367,32871.60000014305,33649,34221.200000047684,34912,35486.300000190735,36234.800000190735,36834.800000190735],"key_events":[],"mouse_events":[9229.900000095367,10746.5,12174.700000047684,13432.300000190735,14921.700000047684,17642.700000047684,19291.200000047684,20308.200000047684,20703,23010.5,24433.700000047684,25546.400000095367,27082.800000190735,28658.800000190735,30367.300000190735,30963,31523.400000095367,32193.900000095367,32871.60000014305,33649,34221.200000047684,34912,35486.300000190735,36234.800000190735,36834.800000190735,38212.200000047684,40714.700000047684,41426.300000190735],"honeypot":0,"survey":"mace","page":6,"trial_type":"survey-mace","trial_index":14,"time_elapsed":808603,"internal_node_id":"0.0-14.0","task_version":"prescreen-v0.3","browser_interactions":0},{"responses":{"01":"No","02":"Yes","02_ages_15":"15","02_ages_16":"16","03":"No","04":"No","05":"No","06":"Yes","06_ages_15":"15","06_ages_16":"16","07":"Yes","07_ages_15":"15","07_ages_16":"16"},"rt":27779.700000047684,"item_order":[0,1,2,3,4,5,6],"radio_events":[3789.5,6524.200000047684,10009.200000047684,12454.200000047684,20492.799999952316,24007.700000047684,25120.900000095367],"checkbox_events":[7859.5,8405.200000047684,14391.900000095367,15542.5,21655.900000095367,22996.599999904633],"key_events":[],"mouse_events":[3789.5,6524.200000047684,7859.5,8405.200000047684,10009.200000047684,12454.200000047684,14391.900000095367,15542.5,20492.799999952316,21655.900000095367,22996.599999904633,24007.700000047684,25120.900000095367,25888.400000095367,27777.400000095367],"honeypot":0,"survey":"mace","page":7,"trial_type":"survey-mace","trial_index":15,"time_elapsed":836387,"internal_node_id":"0.0-15.0","task_version":"prescreen-v0.3","browser_interactions":0},{"responses":{"01":"Yes","01_ages_5":"5","01_ages_6":"6","01_ages_7":"7","01_ages_8":"8","01_ages_9":"9","01_ages_10":"10","01_ages_11":"11","01_ages_12":"12","01_ages_13":"13","01_ages_14":"14","01_ages_15":"15","01_ages_16":"16","01_ages_17":"17","01_ages_18":"18","02":"Yes","02_ages_5":"5","02_ages_6":"6","02_ages_7":"7","02_ages_8":"8","02_ages_9":"9","02_ages_10":"10","02_ages_11":"11","02_ages_12":"12","02_ages_13":"13","02_ages_14":"14","02_ages_15":"15","02_ages_16":"16","02_ages_17":"17","02_ages_18":"18","03":"Yes","03_ages_5":"5","03_ages_6":"6","03_ages_7":"7","03_ages_8":"8","03_ages_9":"9","03_ages_10":"10","03_ages_11":"11","03_ages_12":"12","03_ages_13":"13","03_ages_14":"14","03_ages_15":"15","03_ages_16":"16","03_ages_17":"17","03_ages_18":"18","04":"No"},"rt":139958.70000004768,"item_order":[0,1,2,3],"radio_events":[93706.5,100868.5,125738.59999990463,128659.90000009537],"checkbox_events":[95951.59999990463,96627.70000004768,97278.59999990463,98083.79999995232,102053.40000009537,102558.09999990463,103110.79999995232,104357,104917.20000004768,105462.40000009537,106631.90000009537,107198.20000004768,108119.20000004768,109412.09999990463,110019,111472.20000004768,112198.90000009537,112819.40000009537,113865.70000004768,114481.40000009537,115152.09999990463,115725.09999990463,116368.90000009537,116908.79999995232,117572.5,118319.79999995232,118996.59999990463,120781,129882.5,130585.09999990463,131215.40000009537,131795.59999990463,132758.09999990463,133304.59999990463,133850,135240.29999995232,135850,136389,137080.59999990463,137647.59999990463,138297,138918.90000009537],"key_events":[],"mouse_events":[93706.5,95951.59999990463,96627.70000004768,97278.59999990463,98083.79999995232,100868.5,102053.40000009537,102558.09999990463,103110.79999995232,103734,104357,104917.20000004768,105462.40000009537,106099.29999995232,106631.90000009537,107198.20000004768,108119.20000004768,108789.79999995232,109412.09999990463,110019,110705.40000009537,111472.20000004768,112198.90000009537,112819.40000009537,113865.70000004768,114481.40000009537,115152.09999990463,115725.09999990463,116368.90000009537,116908.79999995232,117572.5,118319.79999995232,118996.59999990463,120781,124902.20000004768,125738.59999990463,128659.90000009537,129882.5,130585.09999990463,131215.40000009537,131795.59999990463,132758.09999990463,133304.59999990463,133850,134630.79999995232,135240.29999995232,135850,136389,137080.59999990463,137647.59999990463,138297,138918.90000009537,139956.79999995232],"honeypot":0,"survey":"mace","page":8,"trial_type":"survey-mace","trial_index":16,"time_elapsed":976349,"internal_node_id":"0.0-16.0","task_version":"prescreen-v0.3","browser_interactions":2},{"responses":{"01":"Yes","01_ages_18":"18","02":"No","03":"Yes","03_ages_18":"18","04":"No"},"rt":70224.89999985695,"item_order":[0,1,2,3],"radio_events":[12466.299999952316,15985.899999856949,17337.199999809265,18561.799999952316,67763.5],"checkbox_events":[60290.199999809265,69048.59999990463],"key_events":[],"mouse_events":[12466.299999952316,15985.899999856949,17337.199999809265,18561.799999952316,60290.199999809265,67763.5,69048.59999990463,70223.79999995232],"honeypot":0,"survey":"mace","page":9,"trial_type":"survey-mace","trial_index":17,"time_elapsed":1046578,"internal_node_id":"0.0-17.0","task_version":"prescreen-v0.3","browser_interactions":0},{"responses":{"01":"No","02":"No","03":"Yes","03_ages_6":"6","03_ages_7":"7","03_ages_8":"8","03_ages_9":"9","03_ages_10":"10","03_ages_11":"11","03_ages_12":"12","03_ages_13":"13","03_ages_14":"14","03_ages_15":"15","03_ages_16":"16","03_ages_17":"17","03_ages_18":"18","04":"Yes","04_ages_15":"15","04_ages_16":"16","04_ages_17":"17","04_ages_18":"18","05":"Yes","05_ages_6":"6","05_ages_7":"7","05_ages_8":"8","05_ages_9":"9","05_ages_10":"10","05_ages_11":"11","05_ages_12":"12","05_ages_13":"13","05_ages_14":"14","05_ages_15":"15","05_ages_16":"16","05_ages_17":"17","05_ages_18":"18","06":"Yes","06_ages_17":"17","07":"No","08":"No"},"rt":48092.199999809265,"item_order":[0,1,2,3,4,5,6,7],"radio_events":[3757.699999809265,5444.699999809265,8607.199999809265,10405.199999809265,12271.099999904633,16490.299999952316,29407.699999809265,34347.5],"checkbox_events":[13690.899999856949,18123.199999809265,18723.89999985695,19427.599999904633,20694.199999809265,21212,22063.39999985695,22596,23155.89999985695,23904.699999809265,24610.099999904633,25405.199999809265,26068.89999985695,26662.699999809265,30425.39999985695,31067.89999985695,31745.599999904633,32668.099999904633,36033.59999990463,37431.699999809265,37963.09999990463,38677.199999809265,39222.299999952316,39845,40945.199999809265,41569.39999985695,42796.59999990463,43496,44063.09999990463,44610.09999990463,45372.39999985695],"key_events":[],"mouse_events":[3757.699999809265,5444.699999809265,8607.199999809265,10405.199999809265,12271.099999904633,13690.899999856949,16490.299999952316,18123.199999809265,18723.89999985695,19427.599999904633,20092.199999809265,20694.199999809265,21212,22063.39999985695,22596,23155.89999985695,23904.699999809265,24610.099999904633,25405.199999809265,26068.89999985695,26662.699999809265,28924.799999952316,29407.699999809265,30425.39999985695,31067.89999985695,31745.599999904633,32668.099999904633,34347.5,36033.59999990463,36642.699999809265,37431.699999809265,37963.09999990463,38677.199999809265,39222.299999952316,39845,40356.199999809265,40945.199999809265,41569.39999985695,42299.5,42796.59999990463,43496,44063.09999990463,44610.09999990463,45372.39999985695,46021.89999985695,48090.199999809265],"honeypot":0,"survey":"mace","page":10,"trial_type":"survey-mace","trial_index":18,"time_elapsed":1094677,"internal_node_id":"0.0-18.0","task_version":"prescreen-v0.3","browser_interactions":0,"instructed":0},{"rt":2740,"trial_type":"mental-health-alert","trial_index":19,"time_elapsed":1097419,"internal_node_id":"0.0-19.0","task_version":"prescreen-v0.3","interactions":"[{\"event\":\"blur\",\"trial\":3,\"time\":142502},{\"event\":\"focus\",\"trial\":3,\"time\":143662},{\"event\":\"blur\",\"trial\":7,\"time\":397148},{\"event\":\"focus\",\"trial\":7,\"time\":403574},{\"event\":\"blur\",\"trial\":9,\"time\":517129},{\"event\":\"focus\",\"trial\":9,\"time\":537378},{\"event\":\"blur\",\"trial\":16,\"time\":837989},{\"event\":\"focus\",\"trial\":16,\"time\":923149}]"}]