[{"view_history":[{"page_index":0,"viewing_time":1591.2000000476837},{"page_index":1,"viewing_time":4936.299999952316},{"page_index":2,"viewing_time":4444.600000023842},{"page_index":3,"viewing_time":1327.2000000476837}],"rt":12300.5,"trial_type":"instructions","trial_index":0,"time_elapsed":12323,"internal_node_id":"0.0-0.0","task_version":"prescreen-v0.3"},{"rt":23647.399999976158,"responses":{"age":"18","gender-categorical":"Female","gender-free-response":"","ethnicity":"Not Hispanic or Latino","race":["White"],"education":"High school"},"trial_type":"survey-demo","trial_index":1,"time_elapsed":35979,"internal_node_id":"0.0-1.0","task_version":"prescreen-v0.3"},{"responses":{"Q15":"3","Q05":"1","Q16":"3","Q07":"1","Q14":"3","Q12":"1","Q17":"1","Q20":"0","Q21":"3","Q01":"2","Q06":"1","Q04":"2","Q13":"3","Q11":"1","Q09":"1","Q18":"2","Q03":"2","Q10":"1","Q02":"1","Q08":"2","Q19":"2"},"rt":160867.10000002384,"item_order":[14,4,15,6,13,11,16,19,20,0,5,3,12,10,8,17,2,9,1,7,18],"radio_events":[26220.700000047684,35352.39999997616,43698.60000002384,51623,58585.89999997616,64746.800000071526,73106.10000002384,77502.80000007153,91479.20000004768,98292.80000007153,105365.20000004768,110843.80000007153,115170.70000004768,117896.60000002384,125574.10000002384,128875.60000002384,131215.20000004768,134648.30000007153,149925.60000002384,152601.70000004768,159844.60000002384],"key_events":[],"mouse_events":[26220.700000047684,35352.39999997616,43698.60000002384,51623,58585.89999997616,64746.800000071526,73106.10000002384,77502.80000007153,91479.20000004768,98292.80000007153,105365.20000004768,110843.80000007153,115170.70000004768,117896.60000002384,125574.10000002384,128875.60000002384,131215.20000004768,134648.30000007153,149925.60000002384,152601.70000004768,158608.20000004768,159844.60000002384,160863.89999997616],"straightlining":0.42857142857142855,"zigzagging":0.45,"honeypot":0,"survey":"sns","trial_type":"survey-template","trial_index":2,"time_elapsed":196855,"internal_node_id":"0.0-2.0","task_version":"prescreen-v0.3","browser_interactions":4,"infrequency":0},{"responses":{"Q10":"3","Q08":"3","Q12":"2","Q11":"2","Q06":"2","Q02":"2","Q03":"3","Q05":"3","Q01":"1","Q09":"2","Q07":"3","Q04":"2","Q13":"0"},"rt":84988.19999992847,"item_order":[9,7,11,10,5,1,2,4,0,8,6,3,12],"radio_events":[30102.799999952316,35344.299999952316,42850,46070.799999952316,48972.59999990463,52823.89999997616,58044.89999997616,63863.699999928474,66845.5,71547.59999990463,74043.09999990463,78485.19999992847,83425.59999990463],"key_events":[],"mouse_events":[30102.799999952316,35344.299999952316,42850,46070.799999952316,48972.59999990463,52823.89999997616,58044.89999997616,63863.699999928474,66845.5,71547.59999990463,74043.09999990463,78485.19999992847,83425.59999990463,84986.29999995232],"straightlining":0.46153846153846156,"zigzagging":0.4166666666666667,"honeypot":0,"survey":"bisbas","trial_type":"survey-template","trial_index":3,"time_elapsed":281849,"internal_node_id":"0.0-3.0","task_version":"prescreen-v0.3","browser_interactions":2,"infrequency":0},{"responses":{"Q01":"2","Q02":"2","Q03":"3"},"rt":29630.5,"radio_events":[16515.200000047684,21061.700000047684,26536.600000023842],"key_events":[],"mouse_events":[16515.200000047684,21061.700000047684,26536.600000023842,29629.600000023842],"survey":"map","page":1,"trial_type":"survey-map","trial_index":4,"time_elapsed":311485,"internal_node_id":"0.0-4.0","task_version":"prescreen-v0.3","browser_interactions":0},{"responses":{"Q04":"3","Q05":"3","Q06":"3"},"rt":16360.199999928474,"radio_events":[6118.699999928474,10060.299999952316,14953.5],"key_events":[],"mouse_events":[6118.699999928474,10060.299999952316,14019.299999952316,14953.5,16359.399999976158],"survey":"map","page":2,"trial_type":"survey-map","trial_index":5,"time_elapsed":327848,"internal_node_id":"0.0-5.0","task_version":"prescreen-v0.3","browser_interactions":0},{"responses":{"Q07":"1","Q08":"4","Q09":"2"},"rt":31592.100000023842,"radio_events":[6182.600000023842,9683.799999952316,11194.5,14211.399999976158,30332.100000023842],"key_events":[],"mouse_events":[6182.600000023842,9683.799999952316,11194.5,14211.399999976158,27168.299999952316,30332.100000023842,31591.199999928474],"survey":"map","page":3,"trial_type":"survey-map","trial_index":6,"time_elapsed":359443,"internal_node_id":"0.0-6.0","task_version":"prescreen-v0.3","browser_interactions":0},{"responses":{"Q10":"0","Q11":"0","Q12":"1","Q13":"2","Q16":"0","Q14":"3","Q15":"2"},"rt":56310.59999990463,"radio_events":[6751.599999904633,10660.299999952316,14357.799999952316,21283.799999952316,25417.599999904633,37826.89999997616,39429.299999952316,55057.59999990463],"key_events":[],"mouse_events":[6751.599999904633,10660.299999952316,14357.799999952316,21283.799999952316,25417.599999904633,37826.89999997616,39429.299999952316,51984.799999952316,53511.39999997616,55057.59999990463,56309],"survey":"map","page":4,"trial_type":"survey-map","trial_index":7,"time_elapsed":415758,"internal_node_id":"0.0-7.0","task_version":"prescreen-v0.3","browser_interactions":0,"infrequency":0},{"view_history":[{"page_index":0,"viewing_time":1590.7000000476837},{"page_index":1,"viewing_time":2748.5}],"rt":4340.299999952316,"trial_type":"instructions","trial_index":8,"time_elapsed":420100,"internal_node_id":"0.0-8.0","task_version":"prescreen-v0.3"},{"responses":{"01":"No","02":"No","03":"No","04":"No","05":"No","06":"No"},"rt":24568.299999952316,"item_order":[0,1,2,3,4,5],"radio_events":[7865.799999952316,12807.899999976158,17207.600000023842,18466.600000023842,19894.299999952316,21665.5],"checkbox_events":[],"key_events":[],"mouse_events":[0.10000002384185791,7865.799999952316,12807.899999976158,15724.5,17207.600000023842,18466.600000023842,19894.299999952316,21665.5,24563.5],"honeypot":0,"survey":"mace","page":1,"trial_type":"survey-mace","trial_index":9,"time_elapsed":444679,"internal_node_id":"0.0-9.0","task_version":"prescreen-v0.3","browser_interactions":0},{"responses":{"01":"No","02":"No","03":"No","04":"No","05":"No","06":"No","07":"No","08":"No"},"rt":19443.600000023842,"item_order":[0,1,2,3,4,5,6,7],"radio_events":[3370,4930.899999976158,6322.100000023842,9839.299999952316,12088.399999976158,14444.5,16238,17960.600000023842],"checkbox_events":[],"key_events":[],"mouse_events":[3370,4930.899999976158,6322.100000023842,9839.299999952316,12088.399999976158,14444.5,16238,17960.600000023842,19437.799999952316],"honeypot":0,"survey":"mace","page":2,"trial_type":"survey-mace","trial_index":10,"time_elapsed":464130,"internal_node_id":"0.0-10.0","task_version":"prescreen-v0.3","browser_interactions":0},{"responses":{"01":"No","02":"No","03":"No","04":"No"},"rt":15735.300000071526,"item_order":[0,1,2,3],"radio_events":[3498,8510.700000047684,11626.5,12891.700000047684],"checkbox_events":[],"key_events":[],"mouse_events":[3498,7272.800000071526,8510.700000047684,11626.5,12891.700000047684,15732.300000071526],"honeypot":0,"survey":"mace","page":3,"trial_type":"survey-mace","trial_index":11,"time_elapsed":479868,"internal_node_id":"0.0-11.0","task_version":"prescreen-v0.3","browser_interactions":0},{"responses":{"01":"No","02":"No"},"rt":12097.399999976158,"item_order":[0,1],"radio_events":[4169.599999904633,6835.699999928474],"checkbox_events":[],"key_events":[],"mouse_events":[4169.599999904633,6835.699999928474,12095.699999928474],"honeypot":0,"survey":"mace","page":4,"trial_type":"survey-mace","trial_index":12,"time_elapsed":491969,"internal_node_id":"0.0-12.0","task_version":"prescreen-v0.3","browser_interactions":0},{"responses":{"01":"No","02":"No","03":"No","04":"No","05":"No"},"rt":18844.699999928474,"item_order":[0,1,2,3,4],"radio_events":[9007.899999976158,10407.699999928474,13200.699999928474,14867.100000023842,17364],"checkbox_events":[],"key_events":[],"mouse_events":[9007.899999976158,10407.699999928474,11455.399999976158,13200.699999928474,14867.100000023842,17364,18841],"honeypot":0,"survey":"mace","page":5,"trial_type":"survey-mace","trial_index":13,"time_elapsed":510819,"internal_node_id":"0.0-13.0","task_version":"prescreen-v0.3","browser_interactions":0},{"responses":{"01":"No","02":"No","03":"Yes","03_ages_11":"11","03_ages_12":"12","03_ages_13":"13","03_ages_16":"16","04":"Yes","04_ages_10":"10","04_ages_11":"11","04_ages_12":"12","05":"No"},"rt":56150.60000002384,"item_order":[0,1,2,3,4],"radio_events":[8873.5,14049.899999976158,20534.5,45424.39999997616,54810.39999997616],"checkbox_events":[29932.899999976158,30902.899999976158,34370.199999928474,35691.799999952316,36606,37267,41972,42976.799999952316,49861.5,50816.799999952316,51745.10000002384],"key_events":[],"mouse_events":[8873.5,14049.899999976158,20534.5,29932.899999976158,30902.899999976158,34370.199999928474,35691.799999952316,36606,37267,41972,42976.799999952316,45424.39999997616,49861.5,50816.799999952316,51745.10000002384,54810.39999997616,56146.89999997616],"honeypot":0,"survey":"mace","page":6,"trial_type":"survey-mace","trial_index":14,"time_elapsed":566977,"internal_node_id":"0.0-14.0","task_version":"prescreen-v0.3","browser_interactions":0},{"responses":{"01":"No","02":"No","03":"No","04":"No","05":"No","06":"No","07":"No"},"rt":11458.399999976158,"item_order":[0,1,2,3,4,5,6],"radio_events":[3289,4420.600000023842,5496.600000023842,6869,8085,9104.100000023842,10560.299999952316],"checkbox_events":[],"key_events":[],"mouse_events":[3289,4420.600000023842,5496.600000023842,6869,8085,9104.100000023842,10560.299999952316,11453.299999952316],"honeypot":0,"survey":"mace","page":7,"trial_type":"survey-mace","trial_index":15,"time_elapsed":578442,"internal_node_id":"0.0-15.0","task_version":"prescreen-v0.3","browser_interactions":0},{"responses":{"01":"No","02":"No","03":"No","04":"No"},"rt":15553.799999952316,"item_order":[0,1,2,3],"radio_events":[5108,8336.200000047684,11156.100000023842,13841.600000023842],"checkbox_events":[],"key_events":[],"mouse_events":[5108,8336.200000047684,11156.100000023842,13841.600000023842,15550.799999952316],"honeypot":0,"survey":"mace","page":8,"trial_type":"survey-mace","trial_index":16,"time_elapsed":594000,"internal_node_id":"0.0-16.0","task_version":"prescreen-v0.3","browser_interactions":0},{"responses":{"01":"Yes","01_ages_1":"1","01_ages_2":"2","01_ages_3":"3","01_ages_4":"4","01_ages_5":"5","01_ages_6":"6","01_ages_7":"7","01_ages_8":"8","01_ages_9":"9","01_ages_10":"10","01_ages_11":"11","01_ages_12":"12","01_ages_13":"13","01_ages_14":"14","01_ages_15":"15","01_ages_16":"16","01_ages_17":"17","01_ages_18":"18","02":"Yes","02_ages_1":"1","02_ages_2":"2","02_ages_3":"3","02_ages_4":"4","02_ages_5":"5","02_ages_6":"6","02_ages_7":"7","02_ages_8":"8","02_ages_9":"9","02_ages_10":"10","02_ages_11":"11","02_ages_12":"12","02_ages_13":"13","02_ages_14":"14","02_ages_15":"15","02_ages_16":"16","02_ages_17":"17","02_ages_18":"18","03":"Yes","03_ages_1":"1","03_ages_2":"2","03_ages_3":"3","03_ages_4":"4","03_ages_5":"5","03_ages_6":"6","03_ages_7":"7","03_ages_8":"8","03_ages_9":"9","03_ages_10":"10","03_ages_11":"11","03_ages_12":"12","03_ages_13":"13","03_ages_14":"14","03_ages_15":"15","03_ages_16":"16","03_ages_17":"17","03_ages_18":"18","04":"Yes","04_ages_1":"1","04_ages_2":"2","04_ages_3":"3","04_ages_4":"4","04_ages_5":"5","04_ages_6":"6","04_ages_7":"7","04_ages_8":"8","04_ages_9":"9","04_ages_10":"10","04_ages_11":"11","04_ages_12":"12","04_ages_13":"13","04_ages_14":"14","04_ages_15":"15","04_ages_16":"16","04_ages_17":"17","04_ages_18":"18"},"rt":117965,"item_order":[0,1,2,3],"radio_events":[4429.899999976158,28631,81461.79999995232,102957.70000004768],"checkbox_events":[7476.299999952316,8192.799999952316,8896.5,9494,10231.799999952316,10767.700000047684,12159.399999976158,15122.200000047684,15895.799999952316,16837.899999976158,17885.799999952316,18505.700000047684,19116.600000023842,20128.299999952316,21240.5,21873.299999952316,22800.899999976158,23821.799999952316,30187.5,32987.10000002384,33239,34279.700000047684,45077.299999952316,45528.39999997616,50276,50846.200000047684,51380.700000047684,51894.60000002384,52344.10000002384,57803,58527.799999952316,59105.200000047684,59751.700000047684,60722.700000047684,61376.299999952316,62093.5,62923.89999997616,64245.700000047684,65117,65862,82510.10000002384,83150.20000004768,83685.10000002384,84866.5,85492.79999995232,85957.29999995232,86506,87173.70000004768,87842.39999997616,88412.5,88945.70000004768,89678.10000002384,90614.39999997616,91337.29999995232,92069.89999997616,92596.79999995232,93139,93876.39999997616,105017.79999995232,105644.79999995232,106222.29999995232,106727.5,107401.5,108057.29999995232,109252.70000004768,109745.79999995232,110258.5,111285.10000002384,111777.70000004768,112326.60000002384,113008.29999995232,113853.5,114437.60000002384,115436.60000002384,116034.20000004768,116667],"key_events":[48267],"mouse_events":[4429.899999976158,7476.299999952316,8192.799999952316,8896.5,9494,10231.799999952316,10767.700000047684,11246,12159.399999976158,15122.200000047684,15895.799999952316,16837.899999976158,17885.799999952316,18505.700000047684,19116.600000023842,20128.299999952316,21240.5,21873.299999952316,22800.899999976158,23821.799999952316,28631,30187.5,32987.10000002384,33239,34279.700000047684,36727.39999997616,43339.89999997616,45077.299999952316,45528.39999997616,50276,50846.200000047684,51380.700000047684,51894.60000002384,52344.10000002384,52752.89999997616,56888.799999952316,57803,58527.799999952316,59105.200000047684,59751.700000047684,60722.700000047684,61376.299999952316,62093.5,62923.89999997616,63740.10000002384,64245.700000047684,65117,65862,80778.89999997616,81461.79999995232,82510.10000002384,83150.20000004768,83685.10000002384,84149.79999995232,84866.5,85492.79999995232,85957.29999995232,86506,87173.70000004768,87842.39999997616,88412.5,88945.70000004768,89678.10000002384,90177.60000002384,90614.39999997616,91337.29999995232,92069.89999997616,92596.79999995232,93139,93876.39999997616,102957.70000004768,105017.79999995232,105644.79999995232,106222.29999995232,106727.5,107401.5,108057.29999995232,109252.70000004768,109745.79999995232,110258.5,111285.10000002384,111777.70000004768,112326.60000002384,113008.29999995232,113853.5,114437.60000002384,114973.20000004768,115436.60000002384,116034.20000004768,116667,117962],"honeypot":0,"survey":"mace","page":9,"trial_type":"survey-mace","trial_index":17,"time_elapsed":711970,"internal_node_id":"0.0-17.0","task_version":"prescreen-v0.3","browser_interactions":0},{"responses":{"01":"No","02":"No","03":"No","04":"No","05":"No","06":"Yes","06_ages_17":"17","07":"Yes","07_ages_1":"1","07_ages_2":"2","07_ages_3":"3","07_ages_4":"4","07_ages_5":"5","07_ages_6":"6","07_ages_7":"7","07_ages_8":"8","07_ages_9":"9","07_ages_10":"10","07_ages_11":"11","07_ages_12":"12","07_ages_13":"13","07_ages_14":"14","07_ages_15":"15","07_ages_16":"16","07_ages_17":"17","07_ages_18":"18","08":"Yes","08_ages_1":"1","08_ages_2":"2","08_ages_3":"3","08_ages_4":"4","08_ages_5":"5","08_ages_6":"6","08_ages_7":"7","08_ages_8":"8","08_ages_9":"9","08_ages_10":"10","08_ages_11":"11","08_ages_12":"12","08_ages_13":"13","08_ages_14":"14","08_ages_15":"15","08_ages_16":"16","08_ages_17":"17","08_ages_18":"18"},"rt":67881.19999992847,"item_order":[0,1,2,3,4,5,6,7],"radio_events":[4035.600000023842,5577.100000023842,6807.5,8664.799999952316,17087.299999952316,18887.100000023842,23425.199999928474,43460.10000002384],"checkbox_events":[20379.299999952316,25784.100000023842,26689.799999952316,27408.5,28097,28647,29717,30785.100000023842,32101.799999952316,32607.600000023842,33192.89999997616,33945.10000002384,34537.199999928474,35064.799999952316,35550.299999952316,36964.39999997616,37774.699999928474,39335.60000002384,40313.39999997616,51463.39999997616,52615.89999997616,55634.199999928474,56641.199999928474,57563,58386.39999997616,59236.89999997616,60074.699999928474,60897.10000002384,61629,62143,62748.5,63310.60000002384,63986.799999952316,64555.799999952316,65104.39999997616,65807.69999992847,66967.60000002384],"key_events":[],"mouse_events":[4035.600000023842,5577.100000023842,6807.5,8664.799999952316,17087.299999952316,18887.100000023842,20379.299999952316,23425.199999928474,25784.100000023842,26689.799999952316,27408.5,28097,28647,29132.299999952316,29717,30785.100000023842,32101.799999952316,32607.600000023842,33192.89999997616,33945.10000002384,34537.199999928474,35064.799999952316,35550.299999952316,36056,36964.39999997616,37774.699999928474,38386.5,39335.60000002384,40313.39999997616,40933.799999952316,43460.10000002384,51463.39999997616,52615.89999997616,55634.199999928474,56641.199999928474,57563,58386.39999997616,59236.89999997616,60074.699999928474,60897.10000002384,61629,62143,62748.5,63310.60000002384,63986.799999952316,64555.799999952316,65104.39999997616,65807.69999992847,66967.60000002384,67875.5],"honeypot":0,"survey":"mace","page":10,"trial_type":"survey-mace","trial_index":18,"time_elapsed":779859,"internal_node_id":"0.0-18.0","task_version":"prescreen-v0.3","browser_interactions":0,"instructed":0},{"rt":7776.399999976158,"trial_type":"mental-health-alert","trial_index":19,"time_elapsed":787638,"internal_node_id":"0.0-19.0","task_version":"prescreen-v0.3","interactions":"[{\"event\":\"blur\",\"trial\":2,\"time\":56200},{\"event\":\"focus\",\"trial\":2,\"time\":56270},{\"event\":\"blur\",\"trial\":2,\"time\":170735},{\"event\":\"focus\",\"trial\":2,\"time\":177798},{\"event\":\"blur\",\"trial\":3,\"time\":222987},{\"event\":\"focus\",\"trial\":3,\"time\":222994}]"}]