[{"view_history":[{"page_index":0,"viewing_time":5640.0999999940395},{"page_index":1,"viewing_time":4159.79999999702},{"page_index":2,"viewing_time":2968},{"page_index":3,"viewing_time":911.9000000059605}],"rt":13680.5,"trial_type":"instructions","trial_index":0,"time_elapsed":13693,"internal_node_id":"0.0-0.0","task_version":"prescreen-v0.3"},{"rt":17909.29999999702,"responses":{"age":"21","gender-categorical":"Male","gender-free-response":"","ethnicity":"Not Hispanic or Latino","race":["White"],"education":"High school","siblings":"1"},"trial_type":"survey-demo","trial_index":1,"time_elapsed":31607,"internal_node_id":"0.0-1.0","task_version":"prescreen-v0.3"},{"responses":{"Q13":"2","Q20":"2","Q12":"2","Q18":"1","Q10":"2","Q06":"1","Q08":"1","Q11":"3","Q21":"3","Q04":"2","Q01":"2","Q02":"2","Q17":"2","Q05":"3","Q19":"2","Q16":"2","Q14":"3","Q07":"2","Q15":"3","Q09":"3","Q03":"2"},"rt":85590.5,"item_order":[12,19,11,17,9,5,7,10,20,3,0,1,16,4,18,15,13,6,14,8,2],"radio_events":[3162.7000000029802,5864.600000008941,10776.5,12056.90000000596,14796.60000000894,18706.5,22036.5,31616.70000000298,34674.70000000298,37104.70000000298,38686.60000000894,40752.70000000298,44222.60000000894,46798.70000000298,51554.70000000298,53128.70000000298,59766.70000000298,66254.60000000894,68748.80000001192,73072.70000000298,77356.80000001192,78246.60000000894,81188.70000000298,82834.90000000596,84652.70000000298],"key_events":[3162.7000000029802,5272.70000000298,5864.600000008941,10776.5,12056.90000000596,14796.60000000894,16252.800000011921,17770.5,18706.5,22036.5,31010.70000000298,31616.70000000298,34674.70000000298,35252.90000000596,37104.70000000298,38686.60000000894,40752.70000000298,44222.60000000894,46208.5,46798.70000000298,51554.70000000298,52822.80000001192,53128.70000000298,59766.70000000298,66254.60000000894,68748.80000001192,73072.70000000298,76538.90000000596,77356.80000001192,78246.60000000894,81188.70000000298,82834.90000000596,84652.70000000298,85588.90000000596],"mouse_events":[],"straightlining":0.5714285714285714,"zigzagging":0.5,"honeypot":0,"survey":"sns","trial_type":"survey-template","trial_index":2,"time_elapsed":117205,"internal_node_id":"0.0-2.0","task_version":"prescreen-v0.3","browser_interactions":0,"infrequency":0},{"responses":{"Q12":"1","Q01":"3","Q05":"2","Q13":"0","Q07":"2","Q09":"2","Q08":"2","Q11":"2","Q03":"3","Q06":"3","Q04":"3","Q10":"2","Q02":"2"},"rt":54528.90000000596,"item_order":[11,0,4,12,6,8,7,10,2,5,3,9,1],"radio_events":[5261.70000000298,11719.70000000298,13607.800000011921,15815.90000000596,18701.70000000298,22039.80000001192,24925.90000000596,33809.80000001192,37171.80000001192,39700.20000000298,46967.80000001192,49629.80000001192,53457.80000001192],"key_events":[5261.70000000298,10419.90000000596,11291.70000000298,11719.70000000298,13607.800000011921,15815.90000000596,18701.70000000298,22039.80000001192,24925.90000000596,33809.80000001192,36643.90000000596,37171.80000001192,39700.20000000298,46967.80000001192,49629.80000001192,53457.80000001192,54527.90000000596],"mouse_events":[],"straightlining":0.5384615384615384,"zigzagging":0.25,"honeypot":0,"survey":"bisbas","trial_type":"survey-template","trial_index":3,"time_elapsed":171740,"internal_node_id":"0.0-3.0","task_version":"prescreen-v0.3","browser_interactions":0,"infrequency":0},{"responses":{"Q01":"3","Q02":"2","Q03":"2"},"rt":32945.19999998808,"radio_events":[15994.699999988079,21264.59999999404,32080.69999998808],"key_events":[15438.699999988079,15994.699999988079,21264.59999999404,32080.69999998808,32944.69999998808],"mouse_events":[],"survey":"map","page":1,"trial_type":"survey-map","trial_index":4,"time_elapsed":204691,"internal_node_id":"0.0-4.0","task_version":"prescreen-v0.3","browser_interactions":0},{"responses":{"Q04":"3","Q05":"3","Q06":"3"},"rt":14081.09999999404,"radio_events":[4675.5,8794.699999988079,11360.699999988079,13166.699999988079],"key_events":[4675.5,8794.699999988079,9594.699999988079,10776.59999999404,11360.699999988079,12324.699999988079,13166.699999988079,14080.59999999404],"mouse_events":[],"survey":"map","page":2,"trial_type":"survey-map","trial_index":5,"time_elapsed":218777,"internal_node_id":"0.0-5.0","task_version":"prescreen-v0.3","browser_interactions":0},{"responses":{"Q07":"4","Q08":"0","Q09":"1"},"rt":14017.79999999702,"radio_events":[4719.199999988079,8607.29999999702,12163.199999988079,13197.199999988079],"key_events":[4719.199999988079,8607.29999999702,11531.09999999404,12163.199999988079,13197.199999988079,14017.29999999702],"mouse_events":[],"survey":"map","page":3,"trial_type":"survey-map","trial_index":6,"time_elapsed":232799,"internal_node_id":"0.0-6.0","task_version":"prescreen-v0.3","browser_interactions":0},{"responses":{"Q10":"1","Q11":"0","Q12":"1","Q13":"1","Q16":"0","Q14":"2","Q15":"2"},"rt":54616,"radio_events":[28779.09999999404,32145,32753,38305,43121.09999999404,46985.09999999404,50473,53537],"key_events":[28779.09999999404,32145,32753,38305,43121.09999999404,46555.09999999404,46985.09999999404,50473,53537,54615.09999999404],"mouse_events":[],"survey":"map","page":4,"trial_type":"survey-map","trial_index":7,"time_elapsed":287420,"internal_node_id":"0.0-7.0","task_version":"prescreen-v0.3","browser_interactions":0,"infrequency":0},{"view_history":[{"page_index":0,"viewing_time":2696.5},{"page_index":1,"viewing_time":4296}],"rt":6993.20000000298,"trial_type":"instructions","trial_index":8,"time_elapsed":294417,"internal_node_id":"0.0-8.0","task_version":"prescreen-v0.3"},{"responses":{"01":"No","02":"No","03":"No","04":"No","05":"No","06":"No"},"rt":42390.60000000894,"item_order":[0,1,2,3,4,5],"radio_events":[8576.10000000894,13397.90000000596,22213.90000000596,26013.80000001192,29347.80000001192,30905.80000001192,32393.80000001192],"checkbox_events":[],"key_events":[0.20000000298023224,8576.10000000894,12565.90000000596,13397.90000000596,22213.90000000596,26013.80000001192,29347.80000001192,30905.80000001192,31999.80000001192,32393.80000001192,42388.20000000298],"mouse_events":[],"honeypot":0,"survey":"mace","page":1,"trial_type":"survey-mace","trial_index":9,"time_elapsed":336814,"internal_node_id":"0.0-9.0","task_version":"prescreen-v0.3","browser_interactions":2},{"responses":{"01":"Yes","01_ages_7":"7","01_ages_8":"8","02":"No","03":"Yes","03_ages_6":"6","03_ages_7":"7","03_ages_8":"8","04":"Yes","04_ages_6":"6","04_ages_7":"7","04_ages_8":"8","05":"No","06":"No","07":"No","08":"No"},"rt":28103.5,"item_order":[0,1,2,3,4,5,6,7],"radio_events":[2582.4000000059605,10868.5,12520.40000000596,17590.40000000596,22654.5,23234.40000000596,24750.30000001192,27104.5],"checkbox_events":[6340.9000000059605,6924.70000000298,14364.60000000894,14672.5,15200.5,18404.30000001192,18842.5,19586.40000000596],"key_events":[2582.4000000059605,6340.9000000059605,6924.70000000298,10868.5,12520.40000000596,14364.60000000894,14672.5,15200.5,17590.40000000596,18404.30000001192,18842.5,19586.40000000596,22080.60000000894,22654.5,23234.40000000596,24750.30000001192,27104.5,28100.60000000894],"mouse_events":[],"honeypot":0,"survey":"mace","page":2,"trial_type":"survey-mace","trial_index":10,"time_elapsed":364925,"internal_node_id":"0.0-10.0","task_version":"prescreen-v0.3","browser_interactions":0},{"responses":{"01":"Yes","01_ages_6":"6","01_ages_7":"7","01_ages_8":"8","02":"No","03":"No","04":"No"},"rt":22144.59999999404,"item_order":[0,1,2,3],"radio_events":[3376.7999999970198,18394.89999999106,19008.89999999106,20052.79999999702],"checkbox_events":[6237,8362.89999999106,10700.89999999106],"key_events":[3376.7999999970198,6237,8362.89999999106,10700.89999999106,17619,18394.89999999106,19008.89999999106,19736.89999999106,20052.79999999702,22143.09999999404],"mouse_events":[],"honeypot":0,"survey":"mace","page":3,"trial_type":"survey-mace","trial_index":11,"time_elapsed":387075,"internal_node_id":"0.0-11.0","task_version":"prescreen-v0.3","browser_interactions":0},{"responses":{"01":"No","02":"No"},"rt":7470.20000000298,"item_order":[0,1],"radio_events":[4833.20000000298,6037.29999999702],"checkbox_events":[],"key_events":[4833.20000000298,6037.29999999702,7469.20000000298],"mouse_events":[],"honeypot":0,"survey":"mace","page":4,"trial_type":"survey-mace","trial_index":12,"time_elapsed":394550,"internal_node_id":"0.0-12.0","task_version":"prescreen-v0.3","browser_interactions":0},{"responses":{"01":"No","02":"No","03":"No","04":"No","05":"No"},"rt":19918.79999999702,"item_order":[0,1,2,3,4],"radio_events":[8872.79999999702,12437,14940.90000000596,17460.90000000596,18888.79999999702],"checkbox_events":[],"key_events":[8872.79999999702,11578.90000000596,12437,14940.90000000596,17460.90000000596,18888.79999999702,19916.79999999702],"mouse_events":[],"honeypot":0,"survey":"mace","page":5,"trial_type":"survey-mace","trial_index":13,"time_elapsed":414475,"internal_node_id":"0.0-13.0","task_version":"prescreen-v0.3","browser_interactions":0},{"responses":{"01":"Yes","01_ages_6":"6","01_ages_7":"7","01_ages_8":"8","01_ages_9":"9","01_ages_10":"10","01_ages_11":"11","01_ages_12":"12","01_ages_13":"13","02":"Yes","02_ages_6":"6","02_ages_7":"7","02_ages_8":"8","02_ages_9":"9","02_ages_10":"10","02_ages_11":"11","02_ages_12":"12","02_ages_13":"13","03":"No","04":"No","05":"Yes","05_ages_6":"6","05_ages_7":"7","05_ages_8":"8","05_ages_9":"9","05_ages_10":"10","05_ages_11":"11","05_ages_12":"12","05_ages_13":"13"},"rt":28782.20000000298,"item_order":[0,1,2,3,4],"radio_events":[5087.899999991059,13850,21318.09999999404,23570,25054],"checkbox_events":[6327.899999991059,6630,8119.899999991059,8544,8954,9422,10032.09999999404,15010.09999999404,15324,15667.79999999702,16354,17190.09999999404,17460.29999999702,17828,18196,18903.89999999106,25807.89999999106,26105.89999999106,26385.89999999106,26660.09999999404,26986.09999999404,27287.89999999106,27564,27836],"key_events":[5087.899999991059,6327.899999991059,6630,7095.899999991059,7747.79999999702,8119.899999991059,8544,8954,9422,9763.59999999404,10032.09999999404,13850,15010.09999999404,15324,15667.79999999702,16354,16694.09999999404,17190.09999999404,17460.29999999702,17828,18196,18903.89999999106,21318.09999999404,23570,25054,25807.89999999106,26105.89999999106,26385.89999999106,26660.09999999404,26986.09999999404,27287.89999999106,27564,27836,28780.20000000298],"mouse_events":[],"honeypot":0,"survey":"mace","page":6,"trial_type":"survey-mace","trial_index":14,"time_elapsed":443264,"internal_node_id":"0.0-14.0","task_version":"prescreen-v0.3","browser_interactions":0},{"responses":{"01":"No","02":"Yes","02_ages_7":"7","02_ages_8":"8","02_ages_9":"9","02_ages_10":"10","02_ages_11":"11","02_ages_12":"12","02_ages_13":"13","03":"Yes","03_ages_7":"7","03_ages_8":"8","03_ages_9":"9","03_ages_10":"10","03_ages_11":"11","03_ages_12":"12","03_ages_13":"13","04":"Yes","04_ages_9":"9","04_ages_10":"10","04_ages_11":"11","04_ages_12":"12","04_ages_13":"13","05":"No","06":"No","07":"No"},"rt":32270,"item_order":[0,1,2,3,4,5,6],"radio_events":[2207.0999999940395,4141.0999999940395,10107,16131,26677.09999999404,27281.09999999404,29387.09999999404],"checkbox_events":[5291.5,5921.0999999940395,6235,6539.79999999702,6828.79999999702,7120.79999999702,7445.0999999940395,7985.5,8497.09999999404,11027.20000000298,11308.89999999106,11588.89999999106,12071.09999999404,12477.09999999404,13047,13825.09999999404,16925,17627,18177.09999999404,18620.89999999106,18930.79999999702,19251,19643],"key_events":[2207.0999999940395,4141.0999999940395,5291.5,5537.29999999702,5921.0999999940395,6235,6539.79999999702,6828.79999999702,7120.79999999702,7445.0999999940395,7985.5,8497.09999999404,10107,11027.20000000298,11308.89999999106,11588.89999999106,12071.09999999404,12477.09999999404,13047,13521.09999999404,13825.09999999404,15687,16131,16925,17627,18177.09999999404,18620.89999999106,18930.79999999702,19251,19643,26017.09999999404,26677.09999999404,27281.09999999404,29387.09999999404,32267.29999999702],"mouse_events":[],"honeypot":0,"survey":"mace","page":7,"trial_type":"survey-mace","trial_index":15,"time_elapsed":475541,"internal_node_id":"0.0-15.0","task_version":"prescreen-v0.3","browser_interactions":0},{"responses":{"01":"No","02":"Yes","02_ages_9":"9","02_ages_10":"10","02_ages_11":"11","02_ages_12":"12","02_ages_13":"13","02_ages_14":"14","02_ages_15":"15","02_ages_16":"16","03":"Yes","03_ages_11":"11","03_ages_12":"12","03_ages_13":"13","03_ages_14":"14","03_ages_15":"15","03_ages_16":"16","03_ages_17":"17","03_ages_18":"18","04":"No"},"rt":31930.40000000596,"item_order":[0,1,2,3],"radio_events":[5560.9000000059605,9534.90000000596,22604.90000000596,30656.90000000596],"checkbox_events":[14094.90000000596,14466.79999999702,14752.70000000298,15072.90000000596,15480.70000000298,15789.20000000298,16054.79999999702,16797,24472.79999999702,24722.79999999702,25040.79999999702,25646.90000000596,25918.79999999702,26647,27240.79999999702,27600.79999999702],"key_events":[5560.9000000059605,9534.90000000596,14094.90000000596,14466.79999999702,14752.70000000298,15072.90000000596,15480.70000000298,15789.20000000298,16054.79999999702,16392.79999999702,16797,22604.90000000596,24472.79999999702,24722.79999999702,25040.79999999702,25322.70000000298,25646.90000000596,25918.79999999702,26261.09999999404,26647,26953.40000000596,27240.79999999702,27600.79999999702,30656.90000000596,31928.79999999702],"mouse_events":[],"honeypot":0,"survey":"mace","page":8,"trial_type":"survey-mace","trial_index":16,"time_elapsed":507477,"internal_node_id":"0.0-16.0","task_version":"prescreen-v0.3","browser_interactions":0},{"responses":{"01":"Yes","01_ages_1":"1","01_ages_2":"2","01_ages_3":"3","01_ages_4":"4","01_ages_5":"5","01_ages_6":"6","01_ages_7":"7","01_ages_8":"8","01_ages_9":"9","01_ages_10":"10","01_ages_11":"11","01_ages_12":"12","01_ages_13":"13","01_ages_14":"14","01_ages_15":"15","01_ages_16":"16","01_ages_17":"17","01_ages_18":"18","02":"Yes","02_ages_1":"1","02_ages_2":"2","02_ages_3":"3","02_ages_4":"4","02_ages_5":"5","02_ages_6":"6","02_ages_7":"7","02_ages_8":"8","02_ages_9":"9","02_ages_10":"10","02_ages_11":"11","02_ages_12":"12","02_ages_13":"13","02_ages_14":"14","02_ages_15":"15","02_ages_16":"16","02_ages_17":"17","02_ages_18":"18","03":"Yes","03_ages_1":"1","03_ages_2":"2","03_ages_3":"3","03_ages_4":"4","03_ages_5":"5","03_ages_6":"6","03_ages_7":"7","03_ages_8":"8","03_ages_9":"9","03_ages_10":"10","03_ages_11":"11","03_ages_12":"12","03_ages_13":"13","03_ages_14":"14","03_ages_15":"15","03_ages_16":"16","03_ages_17":"17","03_ages_18":"18","04":"Yes","04_ages_1":"1","04_ages_2":"2","04_ages_3":"3","04_ages_4":"4","04_ages_5":"5","04_ages_6":"6","04_ages_7":"7","04_ages_8":"8","04_ages_9":"9","04_ages_10":"10","04_ages_11":"11","04_ages_12":"12","04_ages_13":"13","04_ages_14":"14","04_ages_15":"15","04_ages_16":"16","04_ages_17":"17","04_ages_18":"18"},"rt":54582.79999999702,"item_order":[0,1,2,3],"radio_events":[3836.9000000059605,16160.79999999702,27866.90000000596,40986.70000000298],"checkbox_events":[5773.0999999940395,6487,6778.70000000298,7087.20000000298,8943.20000000298,9323,9651,9918.90000000596,10238.90000000596,10577.20000000298,10885,11654.90000000596,11970.70000000298,12378.90000000596,12809.20000000298,13242.90000000596,13748.90000000596,14024.90000000596,16821.20000000298,17409,17714.90000000596,18051.09999999404,18392.70000000298,18718.90000000596,19044.79999999702,19346.90000000596,20661.09999999404,21391.40000000596,21769.09999999404,22362.90000000596,23071,23866.90000000596,24386.70000000298,24773.09999999404,25088.70000000298,25390.90000000596,29770.90000000596,30146.90000000596,30718.90000000596,31049.09999999404,31391,31707,32015,32469,32902.90000000596,33592.90000000596,34242.90000000596,34696.90000000596,35080.90000000596,35947,36293,36935.09999999404,37241.20000000298,37577,45969,46985.09999999404,47401.09999999404,47748.79999999702,48074.90000000596,48399,48793,49125,49491.20000000298,49824.90000000596,50203.90000000596,50556.79999999702,51679,52182.90000000596,52576.90000000596,52972.90000000596,53470.90000000596,53880.90000000596],"key_events":[3836.9000000059605,5773.0999999940395,6078.70000000298,6487,6778.70000000298,7087.20000000298,7384.79999999702,8418.79999999702,8943.20000000298,9323,9651,9918.90000000596,10238.90000000596,10577.20000000298,10885,11224.70000000298,11654.90000000596,11970.70000000298,12378.90000000596,12809.20000000298,13242.90000000596,13748.90000000596,14024.90000000596,16160.79999999702,16821.20000000298,17409,17714.90000000596,18051.09999999404,18392.70000000298,18718.90000000596,19044.79999999702,19346.90000000596,19781.09999999404,20052.79999999702,20661.09999999404,21040.90000000596,21391.40000000596,21769.09999999404,22362.90000000596,22705,23071,23394.79999999702,23866.90000000596,24386.70000000298,24773.09999999404,25088.70000000298,25390.90000000596,27866.90000000596,28848.90000000596,29770.90000000596,30146.90000000596,30718.90000000596,31049.09999999404,31391,31707,32015,32469,32902.90000000596,33246.90000000596,33592.90000000596,33973.29999999702,34242.90000000596,34696.90000000596,35080.90000000596,35602.79999999702,35947,36293,36935.09999999404,37241.20000000298,37577,40642.79999999702,40986.70000000298,45619,45969,46425.29999999702,46985.09999999404,47401.09999999404,47748.79999999702,48074.90000000596,48399,48793,49125,49491.20000000298,49824.90000000596,50203.90000000596,50556.79999999702,50931,51436.90000000596,51679,52182.90000000596,52576.90000000596,52972.90000000596,53470.90000000596,53880.90000000596,54581],"mouse_events":[],"honeypot":0,"survey":"mace","page":9,"trial_type":"survey-mace","trial_index":17,"time_elapsed":562066,"internal_node_id":"0.0-17.0","task_version":"prescreen-v0.3","browser_interactions":0},{"responses":{"01":"No","02":"No","03":"No","04":"Yes","04_ages_13":"13","04_ages_14":"14","04_ages_15":"15","04_ages_16":"16","05":"No","06":"Yes","06_ages_17":"17","07":"Yes","07_ages_10":"10","07_ages_11":"11","07_ages_12":"12","07_ages_13":"13","07_ages_14":"14","07_ages_15":"15","07_ages_16":"16","07_ages_17":"17","07_ages_18":"18","08":"Yes","08_ages_12":"12","08_ages_13":"13","08_ages_14":"14","08_ages_15":"15","08_ages_16":"16","08_ages_17":"17","08_ages_18":"18"},"rt":34496.5,"item_order":[0,1,2,3,4,5,6,7],"radio_events":[2949.4000000059605,3713.2999999970198,6023.20000000298,8301.20000000298,15195.40000000596,16713.20000000298,20603.20000000298,28447.20000000298],"checkbox_events":[11231.20000000298,11567.29999999702,12565.20000000298,12949.29999999702,17853.20000000298,22069.20000000298,22359.20000000298,23005.20000000298,23317.20000000298,23679.20000000298,24047.20000000298,24411.29999999702,26481.20000000298,27113.29999999702,29661.5,30643.29999999702,31783.20000000298,32123.10000000894,32599.29999999702,32887.20000000298,33295.20000000298],"key_events":[2949.4000000059605,3713.2999999970198,5325.29999999702,6023.20000000298,8301.20000000298,10911.20000000298,11231.20000000298,11567.29999999702,12073.5,12565.20000000298,12949.29999999702,15195.40000000596,16713.20000000298,17853.20000000298,20311.20000000298,20603.20000000298,22069.20000000298,22359.20000000298,22701.29999999702,23005.20000000298,23317.20000000298,23679.20000000298,24047.20000000298,24411.29999999702,26121.10000000894,26481.20000000298,27113.29999999702,28447.20000000298,29661.5,30145.40000000596,30643.29999999702,30957.10000000894,31269.10000000894,31783.20000000298,32123.10000000894,32599.29999999702,32887.20000000298,33295.20000000298,34493.40000000596],"mouse_events":[],"honeypot":0,"survey":"mace","page":10,"trial_type":"survey-mace","trial_index":18,"time_elapsed":596570,"internal_node_id":"0.0-18.0","task_version":"prescreen-v0.3","browser_interactions":0,"instructed":0},{"rt":15772,"trial_type":"mental-health-alert","trial_index":19,"time_elapsed":612346,"internal_node_id":"0.0-19.0","task_version":"prescreen-v0.3","interactions":"[{\"event\":\"blur\",\"trial\":9,\"time\":310826},{\"event\":\"focus\",\"trial\":9,\"time\":316530}]"}]