[{"view_history":[{"page_index":0,"viewing_time":2249.2000000476837},{"page_index":1,"viewing_time":3988.5},{"page_index":2,"viewing_time":2881.7999999523163},{"page_index":3,"viewing_time":1894.2000000476837}],"rt":11016.899999976158,"trial_type":"instructions","trial_index":0,"time_elapsed":11079,"internal_node_id":"0.0-0.0","task_version":"prescreen-v0.3"},{"rt":18027.299999952316,"responses":{"age":"30","gender-categorical":"Male","gender-free-response":"","ethnicity":"Not Hispanic or Latino","race":["White"],"education":"Some college"},"trial_type":"survey-demo","trial_index":1,"time_elapsed":29128,"internal_node_id":"0.0-1.0","task_version":"prescreen-v0.3"},{"responses":{"Q08":"1","Q16":"0","Q09":"0","Q03":"1","Q21":"3","Q19":"1","Q06":"0","Q14":"1","Q12":"0","Q13":"1","Q15":"1","Q04":"2","Q01":"1","Q18":"1","Q20":"0","Q11":"0","Q07":"1","Q10":"0","Q02":"0","Q17":"0","Q05":"0"},"rt":152771.70000004768,"item_order":[7,15,8,2,20,18,5,13,11,12,14,3,0,17,19,10,6,9,1,16,4],"radio_events":[12638.800000071526,21677.900000095367,27320.900000095367,32083.200000047684,36072.200000047684,39246.300000071526,44141.40000009537,56051.800000071526,60098.90000009537,64082.700000047684,70552.90000009537,80912.70000004768,86155,90877.5,92937.90000009537,98104.30000007153,110708.60000002384,113426.10000002384,122213.90000009537,131059.70000004768,134208.90000009537,136921.90000009537,138888.80000007153,149699.60000002384],"key_events":[],"mouse_events":[12638.800000071526,19028.5,21677.900000095367,27320.900000095367,32083.200000047684,36072.200000047684,39246.300000071526,44141.40000009537,56051.800000071526,60098.90000009537,64082.700000047684,70552.90000009537,78144,80912.70000004768,86155,90877.5,92937.90000009537,98104.30000007153,110708.60000002384,113426.10000002384,122213.90000009537,131059.70000004768,134208.90000009537,136921.90000009537,138888.80000007153,142012.70000004768,149699.60000002384,152762.60000002384],"straightlining":0.47619047619047616,"zigzagging":0.55,"honeypot":0,"survey":"sns","trial_type":"survey-template","trial_index":2,"time_elapsed":181931,"internal_node_id":"0.0-2.0","task_version":"prescreen-v0.3","browser_interactions":2,"infrequency":0},{"responses":{"Q09":"2","Q05":"3","Q07":"3","Q11":"2","Q08":"2","Q01":"1","Q12":"2","Q04":"2","Q02":"1","Q03":"2","Q13":"0","Q06":"2","Q10":"2"},"rt":87698.80000007153,"item_order":[8,4,6,10,7,0,11,3,1,2,12,5,9],"radio_events":[23774.200000047684,25129.300000071526,28785.400000095367,32823.40000009537,36346.60000002384,41222.10000002384,51428.300000071526,57804.800000071526,66356,69367.40000009537,72418.70000004768,75815.80000007153,82619.5,86343.80000007153],"key_events":[],"mouse_events":[19455,21692.5,22690,23774.200000047684,25129.300000071526,28785.400000095367,32823.40000009537,36346.60000002384,41222.10000002384,51428.300000071526,57804.800000071526,64027.300000071526,66356,69367.40000009537,72418.70000004768,75815.80000007153,76913.5,82619.5,86343.80000007153,87694.40000009537],"straightlining":0.6153846153846154,"zigzagging":0.5,"honeypot":0,"survey":"bisbas","trial_type":"survey-template","trial_index":3,"time_elapsed":269648,"internal_node_id":"0.0-3.0","task_version":"prescreen-v0.3","browser_interactions":0,"infrequency":0},{"responses":{"Q01":"4","Q02":"3","Q03":"4"},"rt":24843.299999952316,"radio_events":[8985.600000023842,17576.199999928474,23721.100000023842],"key_events":[],"mouse_events":[8985.600000023842,17576.199999928474,23721.100000023842,24836.299999952316],"survey":"map","page":1,"trial_type":"survey-map","trial_index":4,"time_elapsed":294504,"internal_node_id":"0.0-4.0","task_version":"prescreen-v0.3","browser_interactions":0},{"responses":{"Q04":"4","Q05":"3","Q06":"4"},"rt":12359.399999976158,"radio_events":[6182.5,9675.699999928474,11431.100000023842],"key_events":[],"mouse_events":[6182.5,9675.699999928474,11431.100000023842,12356],"survey":"map","page":2,"trial_type":"survey-map","trial_index":5,"time_elapsed":306880,"internal_node_id":"0.0-5.0","task_version":"prescreen-v0.3","browser_interactions":0},{"responses":{"Q07":"2","Q08":"4","Q09":"2"},"rt":18574.800000071526,"radio_events":[9566,14242.200000047684,17374.700000047684],"key_events":[],"mouse_events":[9566,13266.100000023842,14242.200000047684,17374.700000047684,18570.100000023842],"survey":"map","page":3,"trial_type":"survey-map","trial_index":6,"time_elapsed":325469,"internal_node_id":"0.0-6.0","task_version":"prescreen-v0.3","browser_interactions":0},{"responses":{"Q10":"3","Q11":"3","Q12":"3","Q13":"3","Q16":"0","Q14":"3","Q15":"3"},"rt":29946,"radio_events":[5836.399999976158,8183.600000023842,11950.799999952316,15858.399999976158,21122.399999976158,25393.299999952316,29061.700000047684],"key_events":[],"mouse_events":[5836.399999976158,8183.600000023842,11950.799999952316,15858.399999976158,21122.399999976158,25393.299999952316,29061.700000047684,29941.299999952316],"survey":"map","page":4,"trial_type":"survey-map","trial_index":7,"time_elapsed":355433,"internal_node_id":"0.0-7.0","task_version":"prescreen-v0.3","browser_interactions":0,"infrequency":0},{"view_history":[{"page_index":0,"viewing_time":2693.100000023842},{"page_index":1,"viewing_time":6825.199999928474}],"rt":9523.399999976158,"trial_type":"instructions","trial_index":8,"time_elapsed":364966,"internal_node_id":"0.0-8.0","task_version":"prescreen-v0.3"},{"responses":{"01":"Yes","01_ages_9":"9","01_ages_10":"10","01_ages_11":"11","01_ages_12":"12","01_ages_13":"13","01_ages_14":"14","01_ages_15":"15","01_ages_16":"16","01_ages_17":"17","01_ages_18":"18","02":"Yes","02_ages_9":"9","02_ages_10":"10","02_ages_11":"11","02_ages_12":"12","02_ages_13":"13","02_ages_14":"14","02_ages_15":"15","02_ages_16":"16","02_ages_17":"17","02_ages_18":"18","03":"Yes","03_ages_9":"9","03_ages_10":"10","03_ages_11":"11","03_ages_12":"12","03_ages_13":"13","03_ages_14":"14","03_ages_15":"15","03_ages_16":"16","03_ages_17":"17","03_ages_18":"18","04":"Yes","04_ages_9":"9","04_ages_10":"10","04_ages_11":"11","04_ages_12":"12","04_ages_13":"13","04_ages_14":"14","04_ages_15":"15","04_ages_16":"16","04_ages_17":"17","04_ages_18":"18","05":"No","06":"Yes","06_ages_9":"9","06_ages_10":"10","06_ages_11":"11","06_ages_12":"12"},"rt":106610.79999995232,"item_order":[0,1,2,3,4,5],"radio_events":[9660.599999904633,34916.299999952316,54243.89999997616,66795.59999990463,87637.5,92220],"checkbox_events":[21521.599999904633,24737.299999952316,26272,27017.699999928474,27846.799999952316,28720.5,29579.699999928474,30370.099999904633,31267.599999904633,32087,37922.299999952316,38612.59999990463,39245.799999952316,42596.09999990463,45235,46148,46907.39999997616,48067.5,48919.59999990463,49724.699999928474,56556.5,58204.5,59690.89999997616,60587.89999997616,61511.59999990463,62329,63071.89999997616,63814.699999928474,64603.59999990463,65354.799999952316,70368.29999995232,71196.19999992847,72520.89999997616,73548.89999997616,74314.5,75073.09999990463,75785,76860.09999990463,77572.09999990463,78677.69999992847,94820.59999990463,95842.39999997616,96652.29999995232,100571.59999990463],"key_events":[],"mouse_events":[0.2999999523162842,9660.599999904633,21521.599999904633,24737.299999952316,25346.299999952316,26272,27017.699999928474,27846.799999952316,28720.5,29579.699999928474,30370.099999904633,31267.599999904633,32087,34916.299999952316,37101.89999997616,37922.299999952316,38612.59999990463,39245.799999952316,40204.699999928474,42596.09999990463,45235,46148,46907.39999997616,48067.5,48919.59999990463,49724.699999928474,54243.89999997616,56556.5,57415.39999997616,58204.5,59690.89999997616,60587.89999997616,61511.59999990463,62329,63071.89999997616,63814.699999928474,64603.59999990463,65354.799999952316,66795.59999990463,70368.29999995232,71196.19999992847,71807.39999997616,72520.89999997616,73548.89999997616,74314.5,75073.09999990463,75785,76860.09999990463,77572.09999990463,78677.69999992847,87637.5,92220,94820.59999990463,95842.39999997616,96652.29999995232,100571.59999990463,106602.59999990463],"honeypot":0,"survey":"mace","page":1,"trial_type":"survey-mace","trial_index":9,"time_elapsed":471601,"internal_node_id":"0.0-9.0","task_version":"prescreen-v0.3","browser_interactions":0},{"responses":{"01":"Yes","01_ages_9":"9","01_ages_10":"10","01_ages_11":"11","01_ages_12":"12","02":"No","03":"Yes","03_ages_3":"3","03_ages_4":"4","03_ages_5":"5","03_ages_6":"6","03_ages_7":"7","03_ages_8":"8","03_ages_9":"9","03_ages_10":"10","04":"Yes","04_ages_3":"3","04_ages_4":"4","04_ages_5":"5","04_ages_6":"6","04_ages_7":"7","04_ages_8":"8","04_ages_9":"9","04_ages_10":"10","05":"Yes","05_ages_7":"7","05_ages_8":"8","05_ages_9":"9","05_ages_10":"10","06":"No","07":"No","08":"No"},"rt":73542.5,"item_order":[0,1,2,3,4,5,6,7],"radio_events":[4504.599999904633,14000.5,17783.099999904633,37100.09999990463,54600.199999928474,67341.39999997616,70859.59999990463,72703.29999995232],"checkbox_events":[6134,6767.199999928474,7378.299999952316,8461.399999976158,19291.799999952316,20035.099999904633,20746,27771.199999928474,28624.599999904633,29688.799999952316,30511.699999928474,31607.399999976158,34200.5,38694.39999997616,40117.799999952316,40751.699999928474,41618.5,42972,43940.5,44933.59999990463,45817.199999928474,47606.39999997616,58181.59999990463,59752.59999990463,61176.5,62042.09999990463,63133,64098.699999928474],"key_events":[],"mouse_events":[4504.599999904633,6134,6767.199999928474,7378.299999952316,8461.399999976158,13573.699999928474,14000.5,17783.099999904633,19291.799999952316,20035.099999904633,20746,27771.199999928474,28624.599999904633,29688.799999952316,30511.699999928474,31607.399999976158,34200.5,37100.09999990463,38694.39999997616,39274,40117.799999952316,40751.699999928474,41618.5,42236.699999928474,42972,43940.5,44933.59999990463,45817.199999928474,47606.39999997616,54600.199999928474,58181.59999990463,58916.09999990463,59752.59999990463,61176.5,62042.09999990463,63133,64098.699999928474,66350.69999992847,67341.39999997616,70859.59999990463,72703.29999995232,73529.79999995232],"honeypot":0,"survey":"mace","page":2,"trial_type":"survey-mace","trial_index":10,"time_elapsed":545156,"internal_node_id":"0.0-10.0","task_version":"prescreen-v0.3","browser_interactions":0},{"responses":{"01":"Yes","01_ages_7":"7","01_ages_8":"8","01_ages_9":"9","01_ages_10":"10","02":"No","03":"No","04":"No"},"rt":24967.199999928474,"item_order":[0,1,2,3],"radio_events":[6304.699999928474,21190.699999928474,22673.100000023842,23810.199999928474],"checkbox_events":[10995.5,11827.699999928474,13352,14164.799999952316],"key_events":[],"mouse_events":[6304.699999928474,10995.5,11827.699999928474,13352,14164.799999952316,21190.699999928474,22673.100000023842,23810.199999928474,24959.600000023842],"honeypot":0,"survey":"mace","page":3,"trial_type":"survey-mace","trial_index":11,"time_elapsed":570139,"internal_node_id":"0.0-11.0","task_version":"prescreen-v0.3","browser_interactions":0},{"responses":{"01":"No","02":"No"},"rt":7353.600000023842,"item_order":[0,1],"radio_events":[2827.600000023842,6377.700000047684],"checkbox_events":[],"key_events":[],"mouse_events":[2827.600000023842,6377.700000047684,7349],"honeypot":0,"survey":"mace","page":4,"trial_type":"survey-mace","trial_index":12,"time_elapsed":577507,"internal_node_id":"0.0-12.0","task_version":"prescreen-v0.3","browser_interactions":0},{"responses":{"01":"No","02":"No","03":"No","04":"No","05":"No"},"rt":29119.900000095367,"item_order":[0,1,2,3,4],"radio_events":[15462.400000095367,19197.600000023842,22045.600000023842,25657.100000023842,27609.600000023842],"checkbox_events":[],"key_events":[],"mouse_events":[15462.400000095367,19197.600000023842,22045.600000023842,25657.100000023842,27609.600000023842,29113.400000095367],"honeypot":0,"survey":"mace","page":5,"trial_type":"survey-mace","trial_index":13,"time_elapsed":606647,"internal_node_id":"0.0-13.0","task_version":"prescreen-v0.3","browser_interactions":0},{"responses":{"01":"Yes","01_ages_11":"11","01_ages_12":"12","01_ages_13":"13","01_ages_14":"14","01_ages_15":"15","01_ages_16":"16","01_ages_17":"17","01_ages_18":"18","02":"Yes","02_ages_11":"11","02_ages_12":"12","02_ages_13":"13","02_ages_14":"14","02_ages_15":"15","02_ages_16":"16","02_ages_17":"17","02_ages_18":"18","03":"No","04":"No","05":"Yes","05_ages_9":"9","05_ages_10":"10","05_ages_11":"11"},"rt":69902.20000004768,"item_order":[0,1,2,3,4],"radio_events":[12975.700000047684,31364.399999976158,47401.60000002384,49947.700000047684,55193.39999997616],"checkbox_events":[18970.700000047684,20341.200000047684,21265.5,21949.800000071526,22653.5,23303,25431.399999976158,26120,33221.300000071526,33948.300000071526,35243.300000071526,36052.60000002384,36996.39999997616,39674.200000047684,40632.300000071526,41599.60000002384,57992.10000002384,58842.800000071526,59824.39999997616,65876.20000004768,68729.39999997616],"key_events":[],"mouse_events":[12975.700000047684,18970.700000047684,20341.200000047684,21265.5,21949.800000071526,22653.5,23303,25431.399999976158,26120,31364.399999976158,33221.300000071526,33948.300000071526,34591.39999997616,35243.300000071526,36052.60000002384,36996.39999997616,37817.39999997616,38597.5,39674.200000047684,40632.300000071526,41599.60000002384,47401.60000002384,49947.700000047684,55193.39999997616,57992.10000002384,58842.800000071526,59824.39999997616,65876.20000004768,68729.39999997616,69896.60000002384],"honeypot":0,"survey":"mace","page":6,"trial_type":"survey-mace","trial_index":14,"time_elapsed":676566,"internal_node_id":"0.0-14.0","task_version":"prescreen-v0.3","browser_interactions":0},{"responses":{"01":"No","02":"No","03":"No","04":"No","05":"No","06":"No","07":"No"},"rt":39224.60000002384,"item_order":[0,1,2,3,4,5,6],"radio_events":[13185.299999952316,16224.700000047684,17438.600000023842,22129.600000023842,24609.700000047684,26265.600000023842,27882.600000023842,36382.200000047684,38387.60000002384],"checkbox_events":[],"key_events":[],"mouse_events":[13185.299999952316,16224.700000047684,17438.600000023842,22129.600000023842,24609.700000047684,26265.600000023842,27882.600000023842,36382.200000047684,38387.60000002384,39208.700000047684],"honeypot":0,"survey":"mace","page":7,"trial_type":"survey-mace","trial_index":15,"time_elapsed":715810,"internal_node_id":"0.0-15.0","task_version":"prescreen-v0.3","browser_interactions":0},{"responses":{"01":"Yes","01_ages_7":"7","01_ages_8":"8","01_ages_9":"9","01_ages_10":"10","01_ages_11":"11","01_ages_12":"12","01_ages_13":"13","01_ages_14":"14","01_ages_15":"15","01_ages_16":"16","01_ages_17":"17","01_ages_18":"18","02":"No","03":"Yes","03_ages_9":"9","03_ages_10":"10","03_ages_11":"11","03_ages_12":"12","03_ages_13":"13","03_ages_14":"14","03_ages_15":"15","03_ages_16":"16","03_ages_17":"17","03_ages_18":"18","04":"Yes","04_ages_9":"9","04_ages_10":"10","04_ages_11":"11","04_ages_12":"12","04_ages_13":"13","04_ages_14":"14","04_ages_15":"15","04_ages_16":"16","04_ages_17":"17","04_ages_18":"18"},"rt":69468.10000002384,"item_order":[0,1,2,3],"radio_events":[21011.400000095367,36774.700000047684,42129.90000009537,57682.300000071526],"checkbox_events":[26208.900000095367,27044.700000047684,27763.300000071526,28575.600000023842,29410.600000023842,30377.600000023842,31105.400000095367,32051.200000047684,32891.40000009537,33867.200000047684,34600.90000009537,35383.800000071526,45359.40000009537,46105.10000002384,46860,48356.200000047684,49105,50220.700000047684,51010.90000009537,51780.300000071526,52547.200000047684,53488.90000009537,59166.300000071526,59894.700000047684,60582.200000047684,61295.90000009537,62035.40000009537,62817.90000009537,64208.800000071526,65245,66082.20000004768,67009.70000004768],"key_events":[],"mouse_events":[21011.400000095367,26208.900000095367,27044.700000047684,27763.300000071526,28575.600000023842,29410.600000023842,30377.600000023842,31105.400000095367,32051.200000047684,32891.40000009537,33867.200000047684,34600.90000009537,35383.800000071526,36774.700000047684,42129.90000009537,45359.40000009537,46105.10000002384,46860,48356.200000047684,49105,50220.700000047684,51010.90000009537,51780.300000071526,52547.200000047684,53488.90000009537,57682.300000071526,59166.300000071526,59894.700000047684,60582.200000047684,61295.90000009537,62035.40000009537,62817.90000009537,63458.40000009537,64208.800000071526,65245,66082.20000004768,67009.70000004768,69460.40000009537],"honeypot":0,"survey":"mace","page":8,"trial_type":"survey-mace","trial_index":16,"time_elapsed":785293,"internal_node_id":"0.0-16.0","task_version":"prescreen-v0.3","browser_interactions":0},{"responses":{"01":"Yes","01_ages_1":"1","01_ages_2":"2","01_ages_3":"3","01_ages_4":"4","01_ages_5":"5","01_ages_6":"6","01_ages_7":"7","01_ages_8":"8","01_ages_9":"9","01_ages_10":"10","01_ages_11":"11","01_ages_12":"12","01_ages_13":"13","01_ages_14":"14","01_ages_15":"15","01_ages_16":"16","01_ages_17":"17","01_ages_18":"18","02":"Yes","02_ages_1":"1","02_ages_2":"2","02_ages_3":"3","02_ages_4":"4","02_ages_5":"5","02_ages_6":"6","02_ages_7":"7","02_ages_8":"8","02_ages_9":"9","02_ages_10":"10","02_ages_11":"11","02_ages_12":"12","02_ages_13":"13","02_ages_14":"14","02_ages_15":"15","02_ages_16":"16","02_ages_17":"17","02_ages_18":"18","03":"Yes","03_ages_1":"1","03_ages_2":"2","03_ages_3":"3","03_ages_4":"4","03_ages_5":"5","03_ages_6":"6","03_ages_7":"7","03_ages_8":"8","03_ages_9":"9","03_ages_10":"10","03_ages_11":"11","03_ages_12":"12","03_ages_13":"13","03_ages_14":"14","03_ages_15":"15","03_ages_16":"16","03_ages_17":"17","03_ages_18":"18","04":"Yes","04_ages_1":"1","04_ages_2":"2","04_ages_3":"3","04_ages_4":"4","04_ages_5":"5","04_ages_6":"6","04_ages_7":"7","04_ages_8":"8","04_ages_9":"9","04_ages_10":"10","04_ages_11":"11","04_ages_12":"12","04_ages_13":"13","04_ages_14":"14","04_ages_15":"15","04_ages_16":"16","04_ages_17":"17","04_ages_18":"18"},"rt":95708.5,"item_order":[0,1,2,3],"radio_events":[4647.299999952316,25380.600000023842,50066.10000002384,75426.39999997616],"checkbox_events":[7082.799999952316,8019.399999976158,8854.399999976158,9588.699999928474,10247.199999928474,10918.899999976158,11575.600000023842,12313.600000023842,13035.799999952316,13741.399999976158,14414.600000023842,15854.100000023842,17202.699999928474,17917.899999976158,19634.399999976158,20563.100000023842,21366.5,22203.600000023842,26765.600000023842,28180.100000023842,29680.299999952316,31228.199999928474,31995.799999952316,32735.399999976158,33496.5,34329.39999997616,35961.199999928474,37058.39999997616,37917.799999952316,39548.5,40418.799999952316,41548.60000002384,42449.60000002384,43306.89999997616,44239.60000002384,45017.10000002384,51637.39999997616,52314.699999928474,52998.39999997616,53833.60000002384,54793.5,55860.5,56495.299999952316,57251.10000002384,57946.5,58814.199999928474,60437.60000002384,61105.60000002384,62069.5,62843.199999928474,63940.5,64806.799999952316,65580,66303.60000002384,77498.89999997616,78527.79999995232,79284.39999997616,79988.89999997616,80638,81496.79999995232,82232.10000002384,83994.10000002384,85038.89999997616,86207.89999997616,87218.89999997616,88185.79999995232,88984.39999997616,89894.29999995232,90676.19999992847,91766.29999995232,92779.5,93580.39999997616],"key_events":[],"mouse_events":[4647.299999952316,7082.799999952316,8019.399999976158,8854.399999976158,9588.699999928474,10247.199999928474,10918.899999976158,11575.600000023842,12313.600000023842,13035.799999952316,13741.399999976158,14414.600000023842,15049,15854.100000023842,16495.699999928474,17202.699999928474,17917.899999976158,18861.799999952316,19634.399999976158,20563.100000023842,21366.5,22203.600000023842,25380.600000023842,26765.600000023842,27562.299999952316,28180.100000023842,29680.299999952316,31228.199999928474,31995.799999952316,32735.399999976158,33496.5,34329.39999997616,35164.5,35961.199999928474,37058.39999997616,37917.799999952316,38836.89999997616,39548.5,40418.799999952316,41548.60000002384,42449.60000002384,43306.89999997616,44239.60000002384,45017.10000002384,50066.10000002384,51637.39999997616,52314.699999928474,52998.39999997616,53833.60000002384,54793.5,55860.5,56495.299999952316,57251.10000002384,57946.5,58814.199999928474,60127.699999928474,60437.60000002384,61105.60000002384,62069.5,62843.199999928474,63940.5,64806.799999952316,65580,66303.60000002384,75426.39999997616,77498.89999997616,78527.79999995232,79284.39999997616,79988.89999997616,80638,81496.79999995232,82232.10000002384,83259.79999995232,83994.10000002384,85038.89999997616,86207.89999997616,87218.89999997616,88185.79999995232,88984.39999997616,89894.29999995232,90676.19999992847,91766.29999995232,92779.5,93580.39999997616,95699.10000002384],"honeypot":0,"survey":"mace","page":9,"trial_type":"survey-mace","trial_index":17,"time_elapsed":881020,"internal_node_id":"0.0-17.0","task_version":"prescreen-v0.3","browser_interactions":0},{"responses":{"01":"Yes","01_ages_9":"9","01_ages_10":"10","01_ages_11":"11","01_ages_12":"12","01_ages_13":"13","01_ages_14":"14","01_ages_15":"15","02":"Yes","02_ages_12":"12","02_ages_13":"13","02_ages_14":"14","02_ages_15":"15","03":"Yes","03_ages_9":"9","03_ages_10":"10","03_ages_11":"11","03_ages_12":"12","03_ages_13":"13","03_ages_14":"14","03_ages_15":"15","03_ages_16":"16","03_ages_17":"17","03_ages_18":"18","04":"No","05":"No","06":"Yes","06_ages_17":"17","07":"Yes","07_ages_1":"1","07_ages_2":"2","07_ages_3":"3","07_ages_4":"4","07_ages_5":"5","07_ages_6":"6","07_ages_7":"7","07_ages_8":"8","07_ages_9":"9","07_ages_10":"10","07_ages_11":"11","07_ages_12":"12","07_ages_13":"13","07_ages_14":"14","07_ages_15":"15","07_ages_16":"16","07_ages_17":"17","07_ages_18":"18","08":"Yes","08_ages_1":"1","08_ages_2":"2","08_ages_3":"3","08_ages_4":"4","08_ages_5":"5","08_ages_6":"6","08_ages_7":"7","08_ages_8":"8","08_ages_9":"9","08_ages_10":"10","08_ages_11":"11","08_ages_12":"12","08_ages_13":"13","08_ages_14":"14","08_ages_15":"15","08_ages_16":"16","08_ages_17":"17","08_ages_18":"18"},"rt":113815.5,"item_order":[0,1,2,3,4,5,6,7],"radio_events":[9751.299999952316,21011.100000023842,32751.600000023842,55039.39999997616,59602.299999952316,63174.39999997616,75085.39999997616,96444.89999997616],"checkbox_events":[12073.200000047684,12969.200000047684,14057.799999952316,15075.600000023842,15823.100000023842,16882.200000047684,17856.299999952316,25094.899999976158,25961,26788.399999976158,27569.700000047684,34647.5,35348.5,37694.200000047684,38637.299999952316,39724.700000047684,40601,41481.39999997616,42248.299999952316,42984.700000047684,43902.700000047684,65053.39999997616,77288.79999995232,78000.29999995232,78750.5,79394.79999995232,80080.79999995232,80771.89999997616,81420,82130.10000002384,82811.5,83474.39999997616,84101.5,84735.79999995232,85511,86089.5,86669.70000004768,87837.60000002384,88633.20000004768,90536.5,99019.79999995232,99862.20000004768,100550.39999997616,101210.29999995232,101927.10000002384,102638.5,103357,104177,105166.29999995232,105800.29999995232,106426.70000004768,107006.79999995232,107594.79999995232,108213.5,108800.60000002384,109393.60000002384,109969.79999995232,110517.29999995232],"key_events":[],"mouse_events":[9751.299999952316,12073.200000047684,12969.200000047684,14057.799999952316,15075.600000023842,15823.100000023842,16882.200000047684,17856.299999952316,21011.100000023842,25094.899999976158,25961,26788.399999976158,27569.700000047684,32751.600000023842,34647.5,35348.5,36092.39999997616,37004.39999997616,37694.200000047684,38637.299999952316,39724.700000047684,40601,41481.39999997616,42248.299999952316,42984.700000047684,43902.700000047684,55039.39999997616,59602.299999952316,63174.39999997616,65053.39999997616,75085.39999997616,77288.79999995232,78000.29999995232,78750.5,79394.79999995232,80080.79999995232,80771.89999997616,81420,82130.10000002384,82811.5,83474.39999997616,84101.5,84735.79999995232,85511,86089.5,86669.70000004768,87488.89999997616,87837.60000002384,88633.20000004768,89507.5,90536.5,96444.89999997616,99019.79999995232,99862.20000004768,100550.39999997616,101210.29999995232,101927.10000002384,102638.5,103357,104177,105166.29999995232,105800.29999995232,106426.70000004768,107006.79999995232,107594.79999995232,108213.5,108800.60000002384,109393.60000002384,109969.79999995232,110517.29999995232,113803.20000004768],"honeypot":0,"survey":"mace","page":10,"trial_type":"survey-mace","trial_index":18,"time_elapsed":994858,"internal_node_id":"0.0-18.0","task_version":"prescreen-v0.3","browser_interactions":0,"instructed":0},{"rt":11401.700000047684,"trial_type":"mental-health-alert","trial_index":19,"time_elapsed":1006277,"internal_node_id":"0.0-19.0","task_version":"prescreen-v0.3","interactions":"[{\"event\":\"blur\",\"trial\":2,\"time\":154329},{\"event\":\"focus\",\"trial\":2,\"time\":157406}]"}]