[{"view_history":[{"page_index":0,"viewing_time":8269.000000000002},{"page_index":1,"viewing_time":6515},{"page_index":2,"viewing_time":6874.999999999998},{"page_index":3,"viewing_time":2265.0000000000036}],"rt":23924.000000000004,"trial_type":"instructions","trial_index":0,"time_elapsed":23934,"internal_node_id":"0.0-0.0","task_version":"prescreen-v0.3"},{"rt":53340,"responses":{"age":"21","gender-categorical":"Female","gender-free-response":"","ethnicity":"Hispanic or Latino","race":["Rather not say"],"education":"Bachelor degree"},"trial_type":"survey-demo","trial_index":1,"time_elapsed":77282,"internal_node_id":"0.0-1.0","task_version":"prescreen-v0.3"},{"responses":{"Q18":"2","Q09":"1","Q15":"3","Q02":"2","Q11":"0","Q12":"0","Q21":"3","Q10":"2","Q06":"3","Q17":"1","Q14":"3","Q13":"3","Q16":"2","Q20":"3","Q05":"0","Q01":"2","Q03":"1","Q04":"3","Q07":"0","Q19":"2","Q08":"3"},"rt":219076,"item_order":[17,8,14,1,10,11,20,9,5,16,13,12,15,19,4,0,2,3,6,18,7],"radio_events":[19202,35342,46505,55367,63946,74675,82752,95315,102571,113256,121368,129965.00000000003,136094,142983.00000000003,151150,154413,169606,176029,179924.00000000003,180523,182495,189502,200515,213251,217577],"key_events":[],"mouse_events":[19202,35342,46505,55367,63946,74675,75736,82752,95315,102571,113256,121368,128735,129965.00000000003,136094,142983.00000000003,151150,154413,169606,176029,179924.00000000003,180523,182495,189502,200515,213251,217577,219062],"straightlining":0.38095238095238093,"zigzagging":0.55,"honeypot":0,"survey":"sns","trial_type":"survey-template","trial_index":2,"time_elapsed":296362,"internal_node_id":"0.0-2.0","task_version":"prescreen-v0.3","browser_interactions":0,"infrequency":0},{"responses":{"Q08":"2","Q09":"2","Q06":"3","Q05":"3","Q07":"2","Q03":"0","Q10":"2","Q04":"3","Q11":"2","Q12":"2","Q13":"0","Q02":"1","Q01":"1"},"rt":125515,"item_order":[7,8,5,4,6,2,9,3,10,11,12,1,0],"radio_events":[46200,51331,55680.00000000006,59951,65083,71396,77916,80261,90973,98363,99679,109217,114301,118922,122697.00000000006],"key_events":[],"mouse_events":[46200,51331,55680.00000000006,59951,65083,71396,77309,77916,80261,90973,98363,99679,108028,109217,114301,118922,122697.00000000006,125506],"straightlining":0.46153846153846156,"zigzagging":0.4166666666666667,"honeypot":0,"survey":"bisbas","trial_type":"survey-template","trial_index":3,"time_elapsed":421880,"internal_node_id":"0.0-3.0","task_version":"prescreen-v0.3","browser_interactions":0,"infrequency":0},{"responses":{"Q01":"2","Q02":"3","Q03":"2"},"rt":38069.99999999994,"radio_events":[15896.999999999942,28380.99999999994,35908.99999999994],"key_events":[],"mouse_events":[15896.999999999942,28380.99999999994,35908.99999999994,38067.99999999994],"survey":"map","page":1,"trial_type":"survey-map","trial_index":4,"time_elapsed":459953,"internal_node_id":"0.0-4.0","task_version":"prescreen-v0.3","browser_interactions":0},{"responses":{"Q04":"1","Q05":"2","Q06":"2"},"rt":31057.99999999994,"radio_events":[11899,20505,29921.99999999994],"key_events":[],"mouse_events":[10094.999999999942,10803.999999999942,11899,20505,28988.99999999994,29921.99999999994,31054.99999999994],"survey":"map","page":2,"trial_type":"survey-map","trial_index":5,"time_elapsed":491013,"internal_node_id":"0.0-5.0","task_version":"prescreen-v0.3","browser_interactions":0},{"responses":{"Q07":"3","Q08":"0","Q09":"1"},"rt":80080.99999999994,"radio_events":[65870.99999999994,73819.99999999994,78503.99999999994],"key_events":[],"mouse_events":[65870.99999999994,70188.99999999994,73819.99999999994,78503.99999999994,80076.00000000006],"survey":"map","page":3,"trial_type":"survey-map","trial_index":6,"time_elapsed":571095,"internal_node_id":"0.0-6.0","task_version":"prescreen-v0.3","browser_interactions":0},{"responses":{"Q10":"3","Q11":"2","Q12":"2","Q13":"1","Q16":"0","Q14":"2","Q15":"2"},"rt":64023,"radio_events":[8939.000000000116,14407,19163,24862.000000000116,32264,41087,52291,62818],"key_events":[],"mouse_events":[8939.000000000116,14407,19163,24862.000000000116,32264,41087,52291,62818,64016.00000000012],"survey":"map","page":4,"trial_type":"survey-map","trial_index":7,"time_elapsed":635153,"internal_node_id":"0.0-7.0","task_version":"prescreen-v0.3","browser_interactions":0,"infrequency":0},{"view_history":[{"page_index":0,"viewing_time":4483},{"page_index":1,"viewing_time":9334}],"rt":13817,"trial_type":"instructions","trial_index":8,"time_elapsed":648977,"internal_node_id":"0.0-8.0","task_version":"prescreen-v0.3"},{"responses":{"01":"No","02":"Yes","02_ages_9":"9","02_ages_10":"10","02_ages_11":"11","02_ages_12":"12","02_ages_13":"13","02_ages_14":"14","03":"Yes","03_ages_7":"7","03_ages_8":"8","03_ages_9":"9","03_ages_10":"10","03_ages_11":"11","03_ages_12":"12","03_ages_13":"13","04":"No","05":"No","06":"Yes","06_ages_5":"5","06_ages_6":"6","06_ages_7":"7","06_ages_8":"8","06_ages_9":"9","06_ages_15":"15"},"rt":104684,"item_order":[0,1,2,3,4,5],"radio_events":[29186,38258,58024,73596,77458,82621],"checkbox_events":[43252,44552,46483,47465,48039,49077,62517,63020,63561,64105,64808,65989,66780,86126,86756,87362,87850,88361,89334,90283.00000000012,93820,98616,99398,99884.00000000012,100419],"key_events":[],"mouse_events":[1,29186,38258,43252,44552,46483,47016,47465,48039,48607,49077,58024,62517,63020,63561,64105,64808,65484,65989,66780,73596,77458,82159,82621,86126,86756,87362,87850,88361,88863,89334,90283.00000000012,93820,98616,99398,99884.00000000012,100419,104672],"honeypot":0,"survey":"mace","page":1,"trial_type":"survey-mace","trial_index":9,"time_elapsed":753673,"internal_node_id":"0.0-9.0","task_version":"prescreen-v0.3","browser_interactions":0},{"responses":{"01":"No","01_ages_5":"5","01_ages_6":"6","02":"No","03":"Yes","03_ages_5":"5","03_ages_6":"6","03_ages_7":"7","03_ages_11":"11","03_ages_12":"12","03_ages_13":"13","03_ages_15":"15","04":"No","05":"Yes","05_ages_5":"5","05_ages_6":"6","05_ages_11":"11","06":"No","07":"No","08":"No"},"rt":87362,"item_order":[0,1,2,3,4,5,6,7],"radio_events":[9142.000000000116,31165,38396,43632,57724.00000000012,62721,79568,82249,86640],"checkbox_events":[11560,12876,13962,14544,45954,46655,47238,48579,49074,49624,50782,70717,73191,75929],"key_events":[],"mouse_events":[9142.000000000116,11560,12876,13962,14544,31165,38396,43632,45954,46655,47238,48579,49074,49624,50782,57724.00000000012,62721,70717,73191,75929,79568,82249,86128.00000000012,86640,87349.00000000012],"honeypot":0,"survey":"mace","page":2,"trial_type":"survey-mace","trial_index":10,"time_elapsed":841039,"internal_node_id":"0.0-10.0","task_version":"prescreen-v0.3","browser_interactions":0},{"responses":{"01":"No","02":"No","03":"No","04":"No"},"rt":19850,"item_order":[0,1,2,3],"radio_events":[10291,14912,17345,18933],"checkbox_events":[],"key_events":[],"mouse_events":[10291,14912,17345,18933,19843],"honeypot":0,"survey":"mace","page":3,"trial_type":"survey-mace","trial_index":11,"time_elapsed":860893,"internal_node_id":"0.0-11.0","task_version":"prescreen-v0.3","browser_interactions":0},{"responses":{"01":"No","02":"No"},"rt":12033,"item_order":[0,1],"radio_events":[5596,10616],"checkbox_events":[],"key_events":[],"mouse_events":[5596,10616,12028],"honeypot":0,"survey":"mace","page":4,"trial_type":"survey-mace","trial_index":12,"time_elapsed":872930,"internal_node_id":"0.0-12.0","task_version":"prescreen-v0.3","browser_interactions":0},{"responses":{"01":"No","02":"No","03":"No","04":"No","05":"No"},"rt":33962,"item_order":[0,1,2,3,4],"radio_events":[16774,23094,27356,31130,32838],"checkbox_events":[],"key_events":[],"mouse_events":[16774,23094,27356,31130,32838,33955.00000000012],"honeypot":0,"survey":"mace","page":5,"trial_type":"survey-mace","trial_index":13,"time_elapsed":906898,"internal_node_id":"0.0-13.0","task_version":"prescreen-v0.3","browser_interactions":0},{"responses":{"01":"No","02":"Yes","02_ages_9":"9","02_ages_10":"10","02_ages_11":"11","02_ages_12":"12","03":"Yes","03_ages_11":"11","03_ages_12":"12","03_ages_13":"13","03_ages_14":"14","04":"No","05":"No"},"rt":70327,"item_order":[0,1,2,3,4],"radio_events":[23816,32746,50048,64005,69130],"checkbox_events":[34765,36240,37278,38038,40886.00000000012,42834,51149,51931,52529,53184.00000000012,54214,57055],"key_events":[],"mouse_events":[22188,23816,32746,34765,35243,35746,36240,36799,37278,38038,40886.00000000012,42834,48508,50048,51149,51931,52529,53184.00000000012,54214,57055,62377.00000000012,64005,69130,70319.00000000012],"honeypot":0,"survey":"mace","page":6,"trial_type":"survey-mace","trial_index":14,"time_elapsed":977231,"internal_node_id":"0.0-14.0","task_version":"prescreen-v0.3","browser_interactions":0},{"responses":{"01":"No","02":"No","03":"No","04":"No","05":"No","06":"No","07":"No"},"rt":39819,"item_order":[0,1,2,3,4,5,6],"radio_events":[4863,7273,9444,11526,35644,37416,39051],"checkbox_events":[],"key_events":[],"mouse_events":[4863,7273,9444,11526,35644,37416,38485,39051,39809],"honeypot":0,"survey":"mace","page":7,"trial_type":"survey-mace","trial_index":15,"time_elapsed":1017055,"internal_node_id":"0.0-15.0","task_version":"prescreen-v0.3","browser_interactions":0},{"responses":{"01":"No","02":"No","03":"No","04":"No"},"rt":34250,"item_order":[0,1,2,3],"radio_events":[15710.000000000116,23023,28849,33629],"checkbox_events":[],"key_events":[],"mouse_events":[15710.000000000116,23023,28849,33629,34244],"honeypot":0,"survey":"mace","page":8,"trial_type":"survey-mace","trial_index":16,"time_elapsed":1051310,"internal_node_id":"0.0-16.0","task_version":"prescreen-v0.3","browser_interactions":0},{"responses":{"01":"Yes","01_ages_4":"4","01_ages_5":"5","01_ages_6":"6","01_ages_7":"7","01_ages_8":"8","01_ages_9":"9","01_ages_10":"10","01_ages_11":"11","01_ages_12":"12","01_ages_13":"13","01_ages_14":"14","01_ages_15":"15","01_ages_16":"16","01_ages_17":"17","01_ages_18":"18","02":"Yes","02_ages_4":"4","02_ages_5":"5","02_ages_6":"6","02_ages_7":"7","02_ages_8":"8","02_ages_9":"9","02_ages_10":"10","02_ages_11":"11","02_ages_12":"12","02_ages_13":"13","02_ages_14":"14","02_ages_15":"15","02_ages_16":"16","02_ages_17":"17","02_ages_18":"18","03":"Yes","03_ages_4":"4","03_ages_5":"5","03_ages_6":"6","03_ages_7":"7","03_ages_8":"8","03_ages_9":"9","03_ages_10":"10","03_ages_11":"11","03_ages_12":"12","03_ages_13":"13","03_ages_14":"14","03_ages_15":"15","03_ages_16":"16","03_ages_17":"17","03_ages_18":"18","04":"Yes","04_ages_4":"4","04_ages_5":"5","04_ages_6":"6","04_ages_7":"7","04_ages_8":"8","04_ages_9":"9","04_ages_10":"10","04_ages_11":"11","04_ages_12":"12","04_ages_13":"13","04_ages_14":"14","04_ages_15":"15","04_ages_16":"16","04_ages_17":"17","04_ages_18":"18"},"rt":76274,"item_order":[0,1,2,3],"radio_events":[5429,30678,48666,66065],"checkbox_events":[12580,13537,14559,15102,15636,16171,17217,17808.000000000233,18382,19659,20561,21191,21790,22428,23171,32490,33065,33639,34429,35012,35506,36041,36648,37222.00000000023,38730,39289.00000000023,39840,40342,41499,42330,50085,51108,51731.00000000023,52657,53192,53723,54724,55282,55921,56520.00000000023,57094,57900,58538,59249,60510.00000000023,66967,67485,68012,68594,69121,69655,70183.00000000023,70709,71277,71866.00000000023,72937,73455,74030,74604,75314],"key_events":[],"mouse_events":[5429,12580,13114,13537,14080,14559,15102,15636,16171,16745,17217,17808.000000000233,18382,19659,20561,21191,21790,22428,23171,30678,32490,33065,33639,34429,35012,35506,36041,36648,37222.00000000023,38730,39289.00000000023,39840,40342,40997,41499,42330,46216,48666,50085,50637,51108,51731.00000000023,52657,53192,53723,54245,54724,55282,55921,56520.00000000023,57094,57900,58538,59249,60510.00000000023,66065,66967,67485,68012,68594,69121,69655,70183.00000000023,70709,71277,71866.00000000023,72394,72937,73455,74030,74604,75314,76264],"honeypot":0,"survey":"mace","page":9,"trial_type":"survey-mace","trial_index":17,"time_elapsed":1127589,"internal_node_id":"0.0-17.0","task_version":"prescreen-v0.3","browser_interactions":0},{"responses":{"01":"No","02":"No","03":"No","04":"No","05":"Yes","05_ages_10":"10","05_ages_11":"11","05_ages_12":"12","05_ages_13":"13","05_ages_14":"14","05_ages_15":"15","05_ages_16":"16","06":"Yes","06_ages_17":"17","07":"Yes","07_ages_1":"1","07_ages_2":"2","07_ages_3":"3","07_ages_4":"4","07_ages_5":"5","07_ages_6":"6","07_ages_7":"7","07_ages_8":"8","07_ages_9":"9","07_ages_10":"10","07_ages_11":"11","07_ages_12":"12","07_ages_13":"13","07_ages_14":"14","07_ages_15":"15","07_ages_16":"16","07_ages_17":"17","07_ages_18":"18","08":"Yes","08_ages_1":"1","08_ages_2":"2","08_ages_3":"3","08_ages_4":"4","08_ages_5":"5","08_ages_6":"6","08_ages_7":"7","08_ages_8":"8","08_ages_9":"9","08_ages_10":"10","08_ages_11":"11","08_ages_12":"12","08_ages_13":"13","08_ages_14":"14","08_ages_15":"15","08_ages_16":"16","08_ages_17":"17","08_ages_18":"18"},"rt":86307.00000000023,"item_order":[0,1,2,3,4,5,6,7],"radio_events":[4175,5667,10918,15141,19451.000000000233,33673,47280,69725],"checkbox_events":[22060,22643,23154,23648,24215,24917,25557.000000000233,35158,55310,55828,56315,56850,57712,58335,59013,59621,60170,61129,61919,62557.00000000023,63123,63722,64431,65047,66317.00000000023,66947,72854,75416,76022,76620,77131,78233,78800,79430,80020,80643,81234,81810,82432.00000000023,83022,83581,84156,84674,85241],"key_events":[],"mouse_events":[4175,5667,10918,15141,19451.000000000233,21510,22060,22643,23154,23648,24215,24917,25557.000000000233,33673,35158,47280,54760,55310,55828,56315,56850,57712,58335,59013,59621,60170,61129,61919,62557.00000000023,63123,63722,64431,65047,65678,66317.00000000023,66947,69725,72008,72854,74427,75416,76022,76620,77131,78233,78800,79430,80020,80643,81234,81810,82432.00000000023,83022,83581,84156,84674,85241,86295],"honeypot":0,"survey":"mace","page":10,"trial_type":"survey-mace","trial_index":18,"time_elapsed":1213902,"internal_node_id":"0.0-18.0","task_version":"prescreen-v0.3","browser_interactions":0,"instructed":0},{"rt":12583,"trial_type":"mental-health-alert","trial_index":19,"time_elapsed":1226489,"internal_node_id":"0.0-19.0","task_version":"prescreen-v0.3","interactions":"[]"}]