[{"view_history":[{"page_index":0,"viewing_time":5075.5},{"page_index":1,"viewing_time":4536.200000047684},{"page_index":2,"viewing_time":3686.4000000953674},{"page_index":3,"viewing_time":1162.2999999523163}],"rt":14462.300000190735,"trial_type":"instructions","trial_index":0,"time_elapsed":14476,"internal_node_id":"0.0-0.0","task_version":"prescreen-v0.3"},{"rt":17834.900000095367,"responses":{"age":"20","gender-categorical":"Other","gender-free-response":"Nonbinary","ethnicity":"Not Hispanic or Latino","race":["White"],"education":"Some college"},"trial_type":"survey-demo","trial_index":1,"time_elapsed":32324,"internal_node_id":"0.0-1.0","task_version":"prescreen-v0.3"},{"responses":{"Q12":"2","Q02":"1","Q09":"0","Q17":"1","Q14":"3","Q21":"3","Q06":"0","Q19":"1","Q15":"3","Q01":"2","Q16":"2","Q03":"2","Q13":"3","Q07":"1","Q11":"1","Q18":"2","Q05":"2","Q08":"2","Q20":"0","Q04":"0","Q10":"1"},"rt":115116.10000014305,"item_order":[11,1,8,16,13,20,5,18,14,0,15,2,12,6,10,17,4,7,19,3,9],"radio_events":[6766.300000190735,10313.100000143051,15902.600000143051,18874.5,20872,24145.400000095367,29928.5,36730.60000014305,41094.90000009537,53943.300000190735,55068.40000009537,56526.40000009537,59951.800000190735,65182.5,69457.20000004768,75544.10000014305,76349.60000014305,85205.30000019073,86775.30000019073,94069.5,98575.80000019073,99353.40000009537,105923.70000004768,110719.90000009537],"key_events":[],"mouse_events":[6766.300000190735,10313.100000143051,15902.600000143051,18874.5,20872,24145.400000095367,29928.5,36730.60000014305,41094.90000009537,53943.300000190735,55068.40000009537,56526.40000009537,59951.800000190735,65182.5,69457.20000004768,72154.90000009537,75544.10000014305,76349.60000014305,83635.60000014305,85205.30000019073,86775.30000019073,94069.5,97890.90000009537,98575.80000019073,99353.40000009537,105923.70000004768,110719.90000009537,115109.80000019073],"straightlining":0.3333333333333333,"zigzagging":0.45,"honeypot":0,"survey":"sns","trial_type":"survey-template","trial_index":2,"time_elapsed":147450,"internal_node_id":"0.0-2.0","task_version":"prescreen-v0.3","browser_interactions":0,"infrequency":0},{"responses":{"Q06":"1","Q01":"3","Q10":"1","Q05":"2","Q13":"0","Q03":"3","Q12":"0","Q08":"2","Q07":"1","Q11":"0","Q04":"3","Q02":"3","Q09":"1"},"rt":85617,"item_order":[5,0,9,4,12,2,11,7,6,10,3,1,8],"radio_events":[7484.100000143051,9068.100000143051,11656.100000143051,20647.60000014305,23870.400000095367,32825.200000047684,45389,47759,49937.300000190735,58364.5,60329.90000009537,64276.200000047684,67424.10000014305,68019.70000004768,75325.90000009537,77559.20000004768],"key_events":[],"mouse_events":[7484.100000143051,9068.100000143051,11656.100000143051,20647.60000014305,23870.400000095367,32825.200000047684,45389,47759,49937.300000190735,58364.5,60329.90000009537,64276.200000047684,67424.10000014305,68019.70000004768,75325.90000009537,77559.20000004768,85616.20000004768],"straightlining":0.3076923076923077,"zigzagging":0.5,"honeypot":0,"survey":"bisbas","trial_type":"survey-template","trial_index":3,"time_elapsed":233075,"internal_node_id":"0.0-3.0","task_version":"prescreen-v0.3","browser_interactions":0,"infrequency":0},{"responses":{"Q01":"3","Q02":"2","Q03":"2"},"rt":22544.199999809265,"radio_events":[6012.099999904633,11231.5,19626.599999904633],"key_events":[],"mouse_events":[6012.099999904633,11231.5,19626.599999904633,21429.699999809265,22543.799999952316],"survey":"map","page":1,"trial_type":"survey-map","trial_index":4,"time_elapsed":255621,"internal_node_id":"0.0-4.0","task_version":"prescreen-v0.3","browser_interactions":0},{"responses":{"Q04":"2","Q05":"2","Q06":"3"},"rt":14659.600000143051,"radio_events":[3126.7000000476837,6092.400000095367,9986.400000095367,14054.299999952316],"key_events":[],"mouse_events":[3126.7000000476837,6092.400000095367,9986.400000095367,13157.900000095367,14054.299999952316,14659.299999952316],"survey":"map","page":2,"trial_type":"survey-map","trial_index":5,"time_elapsed":270282,"internal_node_id":"0.0-5.0","task_version":"prescreen-v0.3","browser_interactions":0},{"responses":{"Q07":"1","Q08":"4","Q09":"2"},"rt":13389.400000095367,"radio_events":[6236.200000047684,10374.300000190735,12232.900000095367],"key_events":[],"mouse_events":[6236.200000047684,10374.300000190735,12232.900000095367,13388],"survey":"map","page":3,"trial_type":"survey-map","trial_index":6,"time_elapsed":283673,"internal_node_id":"0.0-6.0","task_version":"prescreen-v0.3","browser_interactions":0},{"responses":{"Q10":"2","Q11":"2","Q12":"1","Q13":"2","Q16":"0","Q14":"2","Q15":"1"},"rt":41258.200000047684,"radio_events":[5793.100000143051,9389.200000047684,10201.100000143051,15185.5,25842.10000014305,29049.700000047684,32192.200000047684,32922.799999952316,33770.10000014305,36076,39775],"key_events":[],"mouse_events":[5793.100000143051,9389.200000047684,10201.100000143051,15185.5,24737.5,25842.10000014305,29049.700000047684,32192.200000047684,32922.799999952316,33770.10000014305,36076,39775,41256.200000047684],"survey":"map","page":4,"trial_type":"survey-map","trial_index":7,"time_elapsed":324933,"internal_node_id":"0.0-7.0","task_version":"prescreen-v0.3","browser_interactions":0,"infrequency":0},{"view_history":[{"page_index":0,"viewing_time":2277.9000000953674},{"page_index":1,"viewing_time":3634.399999856949}],"rt":5912.700000047684,"trial_type":"instructions","trial_index":8,"time_elapsed":330847,"internal_node_id":"0.0-8.0","task_version":"prescreen-v0.3"},{"responses":{"01":"No","02":"Yes","02_ages_12":"12","02_ages_13":"13","02_ages_14":"14","02_ages_15":"15","02_ages_16":"16","02_ages_17":"17","02_ages_18":"18","03":"Yes","03_ages_18":"18","04":"No","05":"No","06":"Yes","06_ages_5":"5","06_ages_6":"6","06_ages_7":"7"},"rt":45698.10000014305,"item_order":[0,1,2,3,4,5],"radio_events":[6061,7941.900000095367,26172,30196.5,31823.10000014305,35002.200000047684,40353.5],"checkbox_events":[12005.299999952316,12246.700000047684,12525.5,12786.5,13851.400000095367,14061.100000143051,14297,14485.700000047684,16073.400000095367,16393.700000047684,16664.299999952316,16955,17403,17622.799999952316,18200.400000095367,18910.799999952316,20120.400000095367,27414.200000047684,42770.5,43221.799999952316,43492.60000014305],"key_events":[],"mouse_events":[0.20000004768371582,6061,7941.900000095367,12005.299999952316,12246.700000047684,12525.5,12786.5,13851.400000095367,14061.100000143051,14297,14485.700000047684,16073.400000095367,16393.700000047684,16664.299999952316,16955,17403,17622.799999952316,18200.400000095367,18910.799999952316,20120.400000095367,26172,27414.200000047684,27980.900000095367,30196.5,31823.10000014305,35002.200000047684,40353.5,42770.5,43221.799999952316,43492.60000014305,45695.60000014305],"honeypot":0,"survey":"mace","page":1,"trial_type":"survey-mace","trial_index":9,"time_elapsed":376551,"internal_node_id":"0.0-9.0","task_version":"prescreen-v0.3","browser_interactions":0},{"responses":{"01":"No","02":"No","03":"Yes","03_ages_4":"4","03_ages_5":"5","03_ages_6":"6","04":"No","05":"No","06":"No","07":"No","08":"No"},"rt":21894.099999904633,"item_order":[0,1,2,3,4,5,6,7],"radio_events":[2173.2000000476837,5271.299999952316,6561.400000095367,12290.299999952316,12908.5,14826.099999904633,19069,19432.700000047684,21272.799999952316],"checkbox_events":[8404.599999904633,8685.799999952316,8997.400000095367],"key_events":[],"mouse_events":[2173.2000000476837,5271.299999952316,6561.400000095367,8404.599999904633,8685.799999952316,8997.400000095367,12290.299999952316,12908.5,14826.099999904633,17792.5,19069,19432.700000047684,21272.799999952316,21891.799999952316],"honeypot":0,"survey":"mace","page":2,"trial_type":"survey-mace","trial_index":10,"time_elapsed":398449,"internal_node_id":"0.0-10.0","task_version":"prescreen-v0.3","browser_interactions":0},{"responses":{"01":"No","02":"No","03":"No","04":"No"},"rt":10148.599999904633,"item_order":[0,1,2,3],"radio_events":[2480.7999999523163,8447.399999856949,8871.5,9130.199999809265],"checkbox_events":[],"key_events":[],"mouse_events":[2480.7999999523163,6499.799999952316,7632.299999952316,8447.399999856949,8871.5,9130.199999809265,10147.399999856949],"honeypot":0,"survey":"mace","page":3,"trial_type":"survey-mace","trial_index":11,"time_elapsed":408602,"internal_node_id":"0.0-11.0","task_version":"prescreen-v0.3","browser_interactions":0},{"responses":{"01":"No","02":"No"},"rt":6383.799999952316,"item_order":[0,1],"radio_events":[3873.7000000476837,5546.400000095367],"checkbox_events":[],"key_events":[],"mouse_events":[81.90000009536743,2898,3873.7000000476837,5546.400000095367,6381.900000095367],"honeypot":0,"survey":"mace","page":4,"trial_type":"survey-mace","trial_index":12,"time_elapsed":414987,"internal_node_id":"0.0-12.0","task_version":"prescreen-v0.3","browser_interactions":0},{"responses":{"01":"No","02":"No","03":"No","04":"No","05":"No"},"rt":24158.599999904633,"item_order":[0,1,2,3,4],"radio_events":[5700.799999952316,14597.5,16983.799999952316,19832.599999904633,23552.099999904633],"checkbox_events":[],"key_events":[],"mouse_events":[5700.799999952316,11056.5,14597.5,16983.799999952316,19832.599999904633,20269.699999809265,22306.799999952316,23167.89999985695,23552.099999904633,24152],"honeypot":0,"survey":"mace","page":5,"trial_type":"survey-mace","trial_index":13,"time_elapsed":439150,"internal_node_id":"0.0-13.0","task_version":"prescreen-v0.3","browser_interactions":0},{"responses":{"01":"No","02":"Yes","02_ages_9":"9","02_ages_10":"10","02_ages_11":"11","02_ages_12":"12","02_ages_13":"13","02_ages_14":"14","02_ages_15":"15","02_ages_16":"16","03":"Yes","03_ages_7":"7","03_ages_8":"8","03_ages_9":"9","03_ages_10":"10","03_ages_11":"11","04":"Yes","04_ages_11":"11","04_ages_12":"12","04_ages_13":"13","04_ages_14":"14","04_ages_15":"15","04_ages_16":"16","04_ages_17":"17","05":"No"},"rt":42970.700000047684,"item_order":[0,1,2,3,4],"radio_events":[15592.799999952316,16063.700000047684,26048.200000047684,31255.89999985695,41617.59999990463],"checkbox_events":[19831.200000047684,20049,20276.099999904633,21456.200000047684,21740,22086.299999952316,22787,22958.39999985695,28253.39999985695,28451.89999985695,28694,29127.099999904633,29348.099999904633,36082.89999985695,36316.39999985695,36593.59999990463,36988.5,37428.700000047684,37746.700000047684,38030],"key_events":[],"mouse_events":[15091.599999904633,15592.799999952316,16063.700000047684,19831.200000047684,20049,20276.099999904633,21456.200000047684,21740,22086.299999952316,22787,22958.39999985695,26048.200000047684,28253.39999985695,28451.89999985695,28694,29127.099999904633,29348.099999904633,31255.89999985695,36082.89999985695,36316.39999985695,36593.59999990463,36988.5,37428.700000047684,37746.700000047684,38030,41617.59999990463,42968.5],"honeypot":0,"survey":"mace","page":6,"trial_type":"survey-mace","trial_index":14,"time_elapsed":482126,"internal_node_id":"0.0-14.0","task_version":"prescreen-v0.3","browser_interactions":0},{"responses":{"01":"No","02":"No","03":"Yes","03_ages_6":"6","03_ages_7":"7","03_ages_8":"8","04":"No","05":"No","06":"Yes","06_ages_7":"7","06_ages_8":"8","06_ages_9":"9","06_ages_10":"10","06_ages_11":"11","06_ages_12":"12","07":"Yes","07_ages_7":"7","07_ages_8":"8","07_ages_9":"9","07_ages_10":"10","07_ages_11":"11","07_ages_12":"12"},"rt":61727.199999809265,"item_order":[0,1,2,3,4,5,6],"radio_events":[4220.5,7436.699999809265,10753.099999904633,16162.799999952316,21332.699999809265,22845.299999952316,54344.199999809265],"checkbox_events":[13521.5,13712.799999952316,13942.399999856949,41335.09999990463,41573.699999809265,41860.89999985695,42321.299999952316,42620.59999990463,42975.199999809265,43301,43610.699999809265,43939.59999990463,44292.299999952316,47858.299999952316,48295,51694,52529.699999809265,55591,55835.799999952316,57243.299999952316,57541.39999985695,57836.199999809265,58091.699999809265],"key_events":[],"mouse_events":[4220.5,7436.699999809265,10753.099999904633,13521.5,13712.799999952316,13942.399999856949,16162.799999952316,21332.699999809265,22845.299999952316,41335.09999990463,41573.699999809265,41860.89999985695,42321.299999952316,42620.59999990463,42975.199999809265,43301,43610.699999809265,43939.59999990463,44292.299999952316,47858.299999952316,48295,51694,52529.699999809265,54344.199999809265,55591,55835.799999952316,57243.299999952316,57541.39999985695,57836.199999809265,58091.699999809265,61719.199999809265],"honeypot":0,"survey":"mace","page":7,"trial_type":"survey-mace","trial_index":15,"time_elapsed":543859,"internal_node_id":"0.0-15.0","task_version":"prescreen-v0.3","browser_interactions":0},{"responses":{"01":"No","02":"Yes","02_ages_14":"14","02_ages_15":"15","02_ages_16":"16","02_ages_17":"17","02_ages_18":"18","03":"Yes","03_ages_14":"14","03_ages_15":"15","03_ages_16":"16","03_ages_17":"17","03_ages_18":"18","04":"No"},"rt":28376.200000047684,"item_order":[0,1,2,3],"radio_events":[7299.299999952316,10660.099999904633,18382.799999952316,27831.39999985695],"checkbox_events":[13685.399999856949,13933.899999856949,14209.200000047684,14459.700000047684,14646.799999952316,22368.599999904633,22587.599999904633,22848.799999952316,23428.39999985695,25517.599999904633],"key_events":[],"mouse_events":[7299.299999952316,10660.099999904633,13685.399999856949,13933.899999856949,14209.200000047684,14459.700000047684,14646.799999952316,18382.799999952316,22368.599999904633,22587.599999904633,22848.799999952316,23428.39999985695,25517.599999904633,27831.39999985695,28372],"honeypot":0,"survey":"mace","page":8,"trial_type":"survey-mace","trial_index":16,"time_elapsed":572241,"internal_node_id":"0.0-16.0","task_version":"prescreen-v0.3","browser_interactions":0},{"responses":{"01":"Yes","01_ages_1":"1","01_ages_2":"2","01_ages_3":"3","01_ages_4":"4","01_ages_5":"5","01_ages_6":"6","01_ages_7":"7","01_ages_8":"8","01_ages_9":"9","01_ages_10":"10","01_ages_11":"11","01_ages_12":"12","01_ages_13":"13","01_ages_14":"14","02":"Yes","02_ages_1":"1","02_ages_2":"2","02_ages_3":"3","02_ages_4":"4","02_ages_5":"5","02_ages_6":"6","02_ages_7":"7","02_ages_8":"8","02_ages_9":"9","02_ages_10":"10","02_ages_11":"11","02_ages_12":"12","03":"Yes","03_ages_1":"1","03_ages_2":"2","03_ages_3":"3","03_ages_4":"4","03_ages_5":"5","03_ages_6":"6","03_ages_9":"9","03_ages_10":"10","03_ages_11":"11","03_ages_12":"12","04":"Yes","04_ages_10":"10","04_ages_12":"12","04_ages_17":"17","04_ages_18":"18"},"rt":70480.5,"item_order":[0,1,2,3],"radio_events":[5160.899999856949,23949.599999904633,36411,55277.09999990463],"checkbox_events":[8183.599999904633,8394.799999952316,8692.200000047684,9225.799999952316,9786.099999904633,10296.599999904633,10589.299999952316,11105.599999904633,11520.599999904633,11842.099999904633,12161.200000047684,12456.599999904633,12892.899999856949,13178.399999856949,26236,26497,26885,27597.299999952316,27788.799999952316,27990.39999985695,28864.099999904633,29131.89999985695,29375.099999904633,29686.39999985695,31153.200000047684,31344.799999952316,37233,37416.59999990463,37599.39999985695,37774.09999990463,37926.89999985695,38081.39999985695,38234.200000047684,38416.5,38704.5,38966.799999952316,39265.09999990463,39618.89999985695,40412.200000047684,40623.39999985695,40878.59999990463,42818.299999952316,43964.299999952316,45243.200000047684,46424.89999985695,46960.59999990463,47631.59999990463,50172.39999985695,65794.39999985695,66364.79999995232,68267,69698.89999985695],"key_events":[],"mouse_events":[5160.899999856949,8183.599999904633,8394.799999952316,8692.200000047684,9225.799999952316,9786.099999904633,10296.599999904633,10589.299999952316,11105.599999904633,11520.599999904633,11842.099999904633,12161.200000047684,12456.599999904633,12892.899999856949,13178.399999856949,23949.599999904633,24280.799999952316,26236,26497,26885,27597.299999952316,27788.799999952316,27990.39999985695,28864.099999904633,29131.89999985695,29375.099999904633,29686.39999985695,31153.200000047684,31344.799999952316,36411,37233,37416.59999990463,37599.39999985695,37774.09999990463,37926.89999985695,38081.39999985695,38234.200000047684,38416.5,38704.5,38966.799999952316,39265.09999990463,39618.89999985695,40412.200000047684,40623.39999985695,40878.59999990463,42818.299999952316,43964.299999952316,45243.200000047684,46424.89999985695,46960.59999990463,47631.59999990463,50172.39999985695,55277.09999990463,65794.39999985695,66364.79999995232,68267,69698.89999985695,70479.29999995232],"honeypot":0,"survey":"mace","page":9,"trial_type":"survey-mace","trial_index":17,"time_elapsed":642727,"internal_node_id":"0.0-17.0","task_version":"prescreen-v0.3","browser_interactions":0},{"responses":{"01":"No","02":"No","03":"Yes","03_ages_15":"15","03_ages_16":"16","03_ages_17":"17","03_ages_18":"18","04":"Yes","04_ages_8":"8","04_ages_9":"9","04_ages_10":"10","04_ages_17":"17","04_ages_18":"18","05":"Yes","05_ages_7":"7","05_ages_16":"16","05_ages_17":"17","05_ages_18":"18","06":"Yes","06_ages_17":"17","07":"Yes","07_ages_8":"8","07_ages_9":"9","07_ages_10":"10","07_ages_11":"11","08":"No"},"rt":52669.59999990463,"item_order":[0,1,2,3,4,5,6,7],"radio_events":[2144.7999999523163,3338,5872.599999904633,12381.5,19313.89999985695,33762.700000047684,38553.799999952316,49097.200000047684],"checkbox_events":[8770.899999856949,9038.299999952316,9288.099999904633,9545.899999856949,14123,14349.399999856949,14582.599999904633,15577.399999856949,15782.099999904633,24364,24561.099999904633,24794.599999904633,25069.599999904633,25469.799999952316,26472.200000047684,26735.39999985695,27739.099999904633,27960.5,28138,28339.700000047684,28899.700000047684,29128.099999904633,30368.39999985695,30569.799999952316,32251.39999985695,35114.299999952316,42485.59999990463,42858.799999952316,43176.200000047684,43405.59999990463],"key_events":[],"mouse_events":[2144.7999999523163,3338,5872.599999904633,8770.899999856949,9038.299999952316,9288.099999904633,9545.899999856949,11569.099999904633,12381.5,14123,14349.399999856949,14582.599999904633,15577.399999856949,15782.099999904633,19313.89999985695,24364,24561.099999904633,24794.599999904633,25069.599999904633,25469.799999952316,26472.200000047684,26735.39999985695,27739.099999904633,27960.5,28138,28339.700000047684,28899.700000047684,29128.099999904633,30368.39999985695,30569.799999952316,32251.39999985695,33762.700000047684,35114.299999952316,38553.799999952316,42485.59999990463,42858.799999952316,43176.200000047684,43405.59999990463,49097.200000047684,52666],"honeypot":0,"survey":"mace","page":10,"trial_type":"survey-mace","trial_index":18,"time_elapsed":695401,"internal_node_id":"0.0-18.0","task_version":"prescreen-v0.3","browser_interactions":0,"instructed":0},{"rt":2961.4000000953674,"trial_type":"mental-health-alert","trial_index":19,"time_elapsed":698364,"internal_node_id":"0.0-19.0","task_version":"prescreen-v0.3","interactions":"[]"}]