[{"view_history":[{"page_index":0,"viewing_time":4528.300000000047},{"page_index":1,"viewing_time":5384.399999999907},{"page_index":2,"viewing_time":5853.100000000093},{"page_index":3,"viewing_time":1566.3999999999069}],"rt":17333,"trial_type":"instructions","trial_index":0,"time_elapsed":17337,"internal_node_id":"0.0-0.0","task_version":"prescreen-v0.3"},{"rt":19172.100000000093,"responses":{"age":"23","gender-categorical":"Female","gender-free-response":"","ethnicity":"Not Hispanic or Latino","race":["White"],"education":"Some college"},"trial_type":"survey-demo","trial_index":1,"time_elapsed":36514,"internal_node_id":"0.0-1.0","task_version":"prescreen-v0.3"},{"responses":{"Q06":"0","Q02":"1","Q14":"3","Q17":"2","Q10":"2","Q13":"1","Q01":"1","Q09":"3","Q11":"3","Q21":"3","Q12":"2","Q16":"3","Q15":"3","Q03":"1","Q07":"1","Q08":"0","Q18":"2","Q19":"1","Q20":"2","Q05":"0","Q04":"0"},"rt":136013.6000000001,"item_order":[5,1,13,16,9,12,0,8,10,20,11,15,14,2,6,7,17,18,19,4,3],"radio_events":[25460.5,28215.5,31179.199999999953,36440.39999999991,41296.10000000009,47084,51680.19999999995,53489.89999999991,62857.80000000005,65113.69999999995,70746.6000000001,77947.80000000005,83314.80000000005,88246.80000000005,91271.8999999999,100967,104905.80000000005,109683.6000000001,115043.80000000005,118596,127831.8999999999,133012.69999999995],"key_events":[],"mouse_events":[25460.5,28215.5,31179.199999999953,36440.39999999991,41296.10000000009,47084,51680.19999999995,53489.89999999991,55025.19999999995,59893.69999999995,62857.80000000005,65113.69999999995,70746.6000000001,77947.80000000005,83314.80000000005,88246.80000000005,91271.8999999999,92390.1000000001,100967,103676,104905.80000000005,109683.6000000001,115043.80000000005,117417.19999999995,118596,127831.8999999999,133012.69999999995,136011.5],"straightlining":0.2857142857142857,"zigzagging":0.4,"honeypot":0,"survey":"sns","trial_type":"survey-template","trial_index":2,"time_elapsed":172534,"internal_node_id":"0.0-2.0","task_version":"prescreen-v0.3","browser_interactions":0,"infrequency":0},{"responses":{"Q11":"1","Q01":"3","Q04":"3","Q13":"0","Q05":"2","Q02":"3","Q12":"1","Q08":"2","Q10":"0","Q07":"3","Q03":"3","Q09":"0","Q06":"2"},"rt":83903.6000000001,"item_order":[10,0,3,12,4,1,11,7,9,6,2,8,5],"radio_events":[23416.100000000093,26486.399999999907,28877.699999999953,33617.60000000009,46749.60000000009,50088.39999999991,55540.30000000005,61464.5,64208.30000000005,68151.5,73946.30000000005,78710.1000000001,82581],"key_events":[],"mouse_events":[23416.100000000093,26486.399999999907,28877.699999999953,33617.60000000009,46749.60000000009,50088.39999999991,55540.30000000005,61464.5,64208.30000000005,68151.5,73946.30000000005,78710.1000000001,82581,83902.30000000005],"straightlining":0.38461538461538464,"zigzagging":0.4166666666666667,"honeypot":0,"survey":"bisbas","trial_type":"survey-template","trial_index":3,"time_elapsed":256441,"internal_node_id":"0.0-3.0","task_version":"prescreen-v0.3","browser_interactions":0,"infrequency":0},{"responses":{"Q01":"2","Q02":"2","Q03":"3"},"rt":46256.60000000009,"radio_events":[21157.40000000014,27573.5,35446.10000000009,41546.90000000014],"key_events":[],"mouse_events":[21157.40000000014,27573.5,35446.10000000009,41546.90000000014,46255.80000000005],"survey":"map","page":1,"trial_type":"survey-map","trial_index":4,"time_elapsed":302701,"internal_node_id":"0.0-4.0","task_version":"prescreen-v0.3","browser_interactions":0},{"responses":{"Q04":"3","Q05":"3","Q06":"2"},"rt":19607,"radio_events":[9253.5,13194.800000000047,18234],"key_events":[],"mouse_events":[9253.5,13194.800000000047,18234,19606.40000000014],"survey":"map","page":2,"trial_type":"survey-map","trial_index":5,"time_elapsed":322310,"internal_node_id":"0.0-5.0","task_version":"prescreen-v0.3","browser_interactions":0},{"responses":{"Q07":"4","Q08":"4","Q09":"4"},"rt":24593.199999999953,"radio_events":[15748.800000000047,19680.600000000093,23444.100000000093],"key_events":[],"mouse_events":[15748.800000000047,19680.600000000093,23444.100000000093,24592.600000000093],"survey":"map","page":3,"trial_type":"survey-map","trial_index":6,"time_elapsed":346906,"internal_node_id":"0.0-6.0","task_version":"prescreen-v0.3","browser_interactions":0},{"responses":{"Q10":"1","Q11":"0","Q12":"2","Q13":"3","Q16":"0","Q14":"3","Q15":"3"},"rt":60549.69999999995,"radio_events":[10388.600000000093,13001.199999999953,16906,23469.699999999953,32093,38234.19999999995,47324.90000000014,53576.40000000014,56169,57378.19999999995,59156.69999999995],"key_events":[],"mouse_events":[10388.600000000093,13001.199999999953,16906,23469.699999999953,32093,38234.19999999995,39413.10000000009,47324.90000000014,53576.40000000014,56169,57378.19999999995,59156.69999999995,60548.60000000009],"survey":"map","page":4,"trial_type":"survey-map","trial_index":7,"time_elapsed":407458,"internal_node_id":"0.0-7.0","task_version":"prescreen-v0.3","browser_interactions":0,"infrequency":0},{"view_history":[{"page_index":0,"viewing_time":3502.2000000001863},{"page_index":1,"viewing_time":7008.899999999907}],"rt":10511.600000000093,"trial_type":"instructions","trial_index":8,"time_elapsed":417971,"internal_node_id":"0.0-8.0","task_version":"prescreen-v0.3"},{"responses":{"01":"No","02":"Yes","02_ages_12":"12","02_ages_13":"13","02_ages_14":"14","02_ages_15":"15","03":"No","04":"No","05":"No","06":"No"},"rt":57684.89999999991,"item_order":[0,1,2,3,4,5],"radio_events":[23063.899999999907,24659.300000000047,45869.09999999986,49389.39999999991,50751.5,55852.80000000005],"checkbox_events":[34849.09999999986,35905.80000000005,36677.89999999991,37826],"key_events":[],"mouse_events":[0.09999999986030161,23063.899999999907,24659.300000000047,34849.09999999986,35905.80000000005,36677.89999999991,37826,45869.09999999986,49389.39999999991,50751.5,55852.80000000005,57682.19999999995],"honeypot":0,"survey":"mace","page":1,"trial_type":"survey-mace","trial_index":9,"time_elapsed":475663,"internal_node_id":"0.0-9.0","task_version":"prescreen-v0.3","browser_interactions":0},{"responses":{"01":"No","02":"No","03":"Yes","03_ages_1":"1","03_ages_2":"2","03_ages_3":"3","03_ages_4":"4","03_ages_5":"5","03_ages_6":"6","04":"No","05":"No","06":"No","07":"No","08":"No"},"rt":33187.89999999991,"item_order":[0,1,2,3,4,5,6,7],"radio_events":[4994.59999999986,10449.699999999953,12227.800000000047,23864.399999999907,26834,28937.300000000047,30766.09999999986,32046.199999999953],"checkbox_events":[15459.5,16200.800000000047,17166,17989,18832.399999999907,19980.399999999907],"key_events":[],"mouse_events":[4994.59999999986,10449.699999999953,12227.800000000047,14402.399999999907,14585,15459.5,16200.800000000047,17166,17989,18832.399999999907,19980.399999999907,23864.399999999907,26834,28937.300000000047,30766.09999999986,32046.199999999953,33184.39999999991],"honeypot":0,"survey":"mace","page":2,"trial_type":"survey-mace","trial_index":10,"time_elapsed":508856,"internal_node_id":"0.0-10.0","task_version":"prescreen-v0.3","browser_interactions":0},{"responses":{"01":"No","02":"No","03":"No","04":"No"},"rt":22524,"item_order":[0,1,2,3],"radio_events":[14000.399999999907,17542.899999999907,19483.699999999953,21018.09999999986],"checkbox_events":[],"key_events":[],"mouse_events":[14000.399999999907,17542.899999999907,19483.699999999953,21018.09999999986,22522],"honeypot":0,"survey":"mace","page":3,"trial_type":"survey-mace","trial_index":11,"time_elapsed":531384,"internal_node_id":"0.0-11.0","task_version":"prescreen-v0.3","browser_interactions":0},{"responses":{"01":"Yes","01_ages_15":"15","02":"No"},"rt":27793.90000000014,"item_order":[0,1],"radio_events":[10191.5,18474.800000000047],"checkbox_events":[13097.90000000014],"key_events":[],"mouse_events":[10191.5,13097.90000000014,18474.800000000047,27792.800000000047],"honeypot":0,"survey":"mace","page":4,"trial_type":"survey-mace","trial_index":12,"time_elapsed":559181,"internal_node_id":"0.0-12.0","task_version":"prescreen-v0.3","browser_interactions":0},{"responses":{"01":"No","02":"No","03":"No","04":"No","05":"No"},"rt":33681.90000000014,"item_order":[0,1,2,3,4],"radio_events":[15865,18864.300000000047,22326,31301.600000000093,32490.600000000093],"checkbox_events":[],"key_events":[],"mouse_events":[15865,18864.300000000047,22326,31301.600000000093,32490.600000000093,33679.5],"honeypot":0,"survey":"mace","page":5,"trial_type":"survey-mace","trial_index":13,"time_elapsed":592866,"internal_node_id":"0.0-13.0","task_version":"prescreen-v0.3","browser_interactions":0},{"responses":{"01":"Yes","01_ages_9":"9","01_ages_10":"10","01_ages_11":"11","01_ages_12":"12","01_ages_13":"13","01_ages_14":"14","02":"Yes","02_ages_5":"5","02_ages_6":"6","02_ages_7":"7","02_ages_8":"8","02_ages_9":"9","02_ages_10":"10","02_ages_11":"11","02_ages_12":"12","02_ages_13":"13","02_ages_14":"14","03":"Yes","03_ages_15":"15","03_ages_16":"16","03_ages_17":"17","04":"Yes","04_ages_16":"16","04_ages_17":"17","04_ages_18":"18","05":"Yes","05_ages_15":"15"},"rt":74372.19999999995,"item_order":[0,1,2,3,4],"radio_events":[9011.699999999953,24735.800000000047,41154.60000000009,51179.90000000014,69228.90000000014],"checkbox_events":[16108.800000000047,16982.5,17795.40000000014,18659,19512.40000000014,20660.600000000093,27199.800000000047,28205.40000000014,29059,29922.699999999953,30704.90000000014,31639.699999999953,32452.40000000014,33285.5,34108.40000000014,35398.69999999995,43521.90000000014,44395.60000000009,45370.90000000014,56635.40000000014,57905.5,60361.69999999995,70783.30000000005],"key_events":[],"mouse_events":[9011.699999999953,16108.800000000047,16982.5,17795.40000000014,18659,19512.40000000014,20660.600000000093,24735.800000000047,27199.800000000047,28205.40000000014,29059,29922.699999999953,30704.90000000014,31639.699999999953,32452.40000000014,33285.5,34108.40000000014,35398.69999999995,41154.60000000009,43521.90000000014,44395.60000000009,45370.90000000014,51179.90000000014,56635.40000000014,57905.5,60361.69999999995,69228.90000000014,70783.30000000005,74370],"honeypot":0,"survey":"mace","page":6,"trial_type":"survey-mace","trial_index":14,"time_elapsed":667243,"internal_node_id":"0.0-14.0","task_version":"prescreen-v0.3","browser_interactions":0},{"responses":{"01":"Yes","01_ages_15":"15","02":"No","03":"No","04":"No","05":"No","06":"Yes","06_ages_16":"16","07":"Yes","07_ages_16":"16"},"rt":45807.39999999991,"item_order":[0,1,2,3,4,5,6],"radio_events":[8381.600000000093,14839.600000000093,18684.699999999953,21714.600000000093,23634.899999999907,27769.300000000047,37705.60000000009],"checkbox_events":[9865.100000000093,29628.5,39671.19999999995],"key_events":[],"mouse_events":[8381.600000000093,9865.100000000093,14839.600000000093,18684.699999999953,21714.600000000093,23634.899999999907,27769.300000000047,29628.5,37705.60000000009,39671.19999999995,45804.19999999995],"honeypot":0,"survey":"mace","page":7,"trial_type":"survey-mace","trial_index":15,"time_elapsed":713056,"internal_node_id":"0.0-15.0","task_version":"prescreen-v0.3","browser_interactions":0},{"responses":{"01":"No","02":"No","03":"No","04":"No"},"rt":28755.5,"item_order":[0,1,2,3],"radio_events":[10205.899999999907,17319.399999999907,23703.600000000093,27808.5],"checkbox_events":[],"key_events":[],"mouse_events":[10205.899999999907,17319.399999999907,23703.600000000093,27808.5,28753.5],"honeypot":0,"survey":"mace","page":8,"trial_type":"survey-mace","trial_index":16,"time_elapsed":741815,"internal_node_id":"0.0-16.0","task_version":"prescreen-v0.3","browser_interactions":0},{"responses":{"01":"Yes","01_ages_1":"1","01_ages_2":"2","01_ages_3":"3","01_ages_4":"4","01_ages_5":"5","01_ages_6":"6","01_ages_7":"7","01_ages_8":"8","01_ages_9":"9","01_ages_10":"10","01_ages_11":"11","01_ages_12":"12","01_ages_13":"13","01_ages_14":"14","01_ages_15":"15","01_ages_16":"16","01_ages_17":"17","01_ages_18":"18","02":"Yes","02_ages_1":"1","02_ages_2":"2","02_ages_3":"3","02_ages_4":"4","02_ages_5":"5","02_ages_6":"6","02_ages_7":"7","02_ages_8":"8","02_ages_9":"9","02_ages_10":"10","02_ages_11":"11","02_ages_12":"12","02_ages_13":"13","02_ages_14":"14","02_ages_15":"15","02_ages_16":"16","02_ages_17":"17","02_ages_18":"18","03":"Yes","03_ages_1":"1","03_ages_2":"2","03_ages_3":"3","03_ages_4":"4","03_ages_5":"5","03_ages_6":"6","03_ages_7":"7","03_ages_8":"8","03_ages_9":"9","03_ages_10":"10","03_ages_11":"11","03_ages_12":"12","03_ages_13":"13","03_ages_14":"14","03_ages_15":"15","03_ages_16":"16","03_ages_17":"17","03_ages_18":"18","04":"Yes","04_ages_1":"1","04_ages_2":"2","04_ages_3":"3","04_ages_4":"4","04_ages_5":"5","04_ages_6":"6","04_ages_7":"7","04_ages_8":"8","04_ages_9":"9","04_ages_10":"10","04_ages_11":"11","04_ages_12":"12","04_ages_13":"13","04_ages_14":"14","04_ages_15":"15","04_ages_16":"16","04_ages_17":"17","04_ages_18":"18"},"rt":67401.70000000019,"item_order":[0,1,2,3],"radio_events":[5527.899999999907,22037.799999999814,35915.200000000186,53391.299999999814],"checkbox_events":[8500.200000000186,8947.100000000093,9455.399999999907,9872.200000000186,10319,11162.799999999814,11508.200000000186,12523.899999999907,12930.100000000093,13326.5,13722.299999999814,14413.899999999907,14799.600000000093,15205.799999999814,15937.700000000186,16374.600000000093,16831.700000000186,17959,23277.299999999814,23897,24517,24892.5,25553.799999999814,26376.299999999814,26874.200000000186,27330.600000000093,27951.200000000186,28346.600000000093,28987.100000000093,29565.799999999814,30155.299999999814,30643.200000000186,31374.5,31851.700000000186,32837.5,33365.200000000186,36951.89999999991,37337.89999999991,37836.10000000009,38313,39156.39999999991,39664.299999999814,40700.89999999991,41248.60000000009,42335.799999999814,42955.799999999814,43392.5,43757.700000000186,44489.700000000186,44905.60000000009,45718.799999999814,46125.10000000009,46866.799999999814,47344,55341.39999999991,56103.299999999814,56896.10000000009,57403.5,58308.200000000186,58805.799999999814,59517,60044.89999999991,61203.5,61690.89999999991,62453.39999999991,62879.39999999991,63580.60000000009,64026.89999999991,64830,65378,66110.29999999981,66525.8999999999],"key_events":[],"mouse_events":[5527.899999999907,8500.200000000186,8947.100000000093,9455.399999999907,9872.200000000186,10319,11162.799999999814,11508.200000000186,11872.899999999907,12523.899999999907,12930.100000000093,13326.5,13722.299999999814,14413.899999999907,14799.600000000093,15205.799999999814,15937.700000000186,16374.600000000093,16831.700000000186,17959,22037.799999999814,23277.299999999814,23897,24517,24892.5,25553.799999999814,25919.100000000093,26376.299999999814,26874.200000000186,27330.600000000093,27951.200000000186,28346.600000000093,28987.100000000093,29565.799999999814,30155.299999999814,30643.200000000186,31374.5,31851.700000000186,32837.5,33365.200000000186,35915.200000000186,36951.89999999991,37337.89999999991,37836.10000000009,38313,39156.39999999991,39664.299999999814,40070.5,40700.89999999991,41248.60000000009,42335.799999999814,42955.799999999814,43392.5,43757.700000000186,44489.700000000186,44905.60000000009,45718.799999999814,46125.10000000009,46866.799999999814,47344,52517,53391.299999999814,55341.39999999991,56103.299999999814,56896.10000000009,57403.5,58308.200000000186,58805.799999999814,59517,60044.89999999991,61203.5,61690.89999999991,62453.39999999991,62879.39999999991,63580.60000000009,64026.89999999991,64830,65378,66110.29999999981,66525.8999999999,67399.8999999999],"honeypot":0,"survey":"mace","page":9,"trial_type":"survey-mace","trial_index":17,"time_elapsed":809220,"internal_node_id":"0.0-17.0","task_version":"prescreen-v0.3","browser_interactions":0},{"responses":{"01":"No","02":"No","03":"No","04":"No","05":"Yes","05_ages_9":"9","05_ages_10":"10","05_ages_11":"11","05_ages_12":"12","05_ages_13":"13","05_ages_14":"14","05_ages_15":"15","05_ages_16":"16","05_ages_17":"17","05_ages_18":"18","06":"Yes","06_ages_17":"17","07":"Yes","07_ages_1":"1","07_ages_2":"2","07_ages_3":"3","07_ages_4":"4","07_ages_5":"5","07_ages_6":"6","07_ages_7":"7","07_ages_8":"8","07_ages_9":"9","07_ages_10":"10","07_ages_11":"11","07_ages_12":"12","07_ages_13":"13","07_ages_14":"14","07_ages_15":"15","07_ages_16":"16","07_ages_17":"17","07_ages_18":"18","08":"No"},"rt":72319.20000000019,"item_order":[0,1,2,3,4,5,6,7],"radio_events":[6551.4000000003725,8258,10503,14089.900000000373,17365.400000000373,30564.900000000373,38427.80000000028,56367.80000000028],"checkbox_events":[22292,23057.700000000186,23484.80000000028,23981.80000000028,24632.5,25099.100000000093,25719.80000000028,26298.30000000028,27091.5,27568.100000000093,32078.700000000186,41130.40000000037,41567,42014.60000000009,42389.700000000186,43081.30000000028,44106.90000000037,44502.700000000186,45265,45864,46524.60000000009,47031.90000000037,47794.40000000037,48271.5,49592.60000000009,49988.30000000028,50973.90000000037,51502.10000000009,51989.5],"key_events":[],"mouse_events":[6551.4000000003725,8258,10503,14089.900000000373,17365.400000000373,22292,23057.700000000186,23484.80000000028,23981.80000000028,24632.5,25099.100000000093,25719.80000000028,26298.30000000028,27091.5,27568.100000000093,30564.900000000373,32078.700000000186,38427.80000000028,40287.30000000028,41130.40000000037,41567,42014.60000000009,42389.700000000186,43081.30000000028,43507.5,44106.90000000037,44502.700000000186,45265,45864,46524.60000000009,47031.90000000037,47794.40000000037,48271.5,49013.700000000186,49592.60000000009,49988.30000000028,50973.90000000037,51502.10000000009,51989.5,56367.80000000028,72315.70000000019],"honeypot":0,"survey":"mace","page":10,"trial_type":"survey-mace","trial_index":18,"time_elapsed":881545,"internal_node_id":"0.0-18.0","task_version":"prescreen-v0.3","browser_interactions":0,"instructed":0},{"rt":12745.799999999814,"trial_type":"mental-health-alert","trial_index":19,"time_elapsed":894293,"internal_node_id":"0.0-19.0","task_version":"prescreen-v0.3","interactions":"[]"}]