[{"view_history":[{"page_index":0,"viewing_time":7022.199999988079},{"page_index":1,"viewing_time":4424.200000047684},{"page_index":2,"viewing_time":2721.5},{"page_index":3,"viewing_time":988.5999999642372}],"rt":15157.5,"trial_type":"instructions","trial_index":0,"time_elapsed":15163,"internal_node_id":"0.0-0.0","task_version":"prescreen-v0.3"},{"rt":19333.100000023842,"responses":{"age":"34","gender-categorical":"Male","gender-free-response":"","ethnicity":"Not Hispanic or Latino","race":["White"],"education":"Bachelor degree","siblings":"0"},"trial_type":"survey-demo","trial_index":1,"time_elapsed":34503,"internal_node_id":"0.0-1.0","task_version":"prescreen-v0.3"},{"responses":{"Q09":"2","Q04":"2","Q05":"2","Q13":"1","Q15":"2","Q08":"1","Q17":"1","Q01":"2","Q11":"1","Q21":"3","Q06":"1","Q19":"1","Q02":"1","Q03":"1","Q12":"1","Q07":"1","Q10":"2","Q16":"2","Q20":"1","Q14":"1","Q18":"1"},"rt":109341.90000003576,"item_order":[8,3,4,12,14,7,16,0,10,20,5,18,1,2,11,6,9,15,19,13,17],"radio_events":[6353.900000035763,13136.699999988079,18428,23153.19999998808,29581.30000001192,34058.60000002384,37564.5,40346.80000001192,42823.40000003576,48317.69999998808,50260,57593.40000003576,63561.90000003576,68689.80000001192,71138.10000002384,76883.60000002384,83243.19999998808,86493.10000002384,93336.80000001192,95812.90000003576,103321.10000002384,107607.80000001192],"key_events":[],"mouse_events":[6353.900000035763,10640.800000011921,11470.400000035763,13136.699999988079,18428,23153.19999998808,28567.69999998808,29078.400000035763,29581.30000001192,33429.10000002384,34058.60000002384,36865.90000003576,37564.5,39916.19999998808,40346.80000001192,42823.40000003576,47217.80000001192,47624.19999998808,47991.10000002384,48317.69999998808,49653.5,49964.90000003576,50260,57593.40000003576,63561.90000003576,68689.80000001192,71138.10000002384,76253.5,76883.60000002384,83243.19999998808,85927,86493.10000002384,93336.80000001192,95343.10000002384,95812.90000003576,103321.10000002384,107607.80000001192,109338.40000003576],"straightlining":0.6190476190476191,"zigzagging":0.35,"honeypot":0,"survey":"sns","trial_type":"survey-template","trial_index":2,"time_elapsed":143856,"internal_node_id":"0.0-2.0","task_version":"prescreen-v0.3","browser_interactions":0,"infrequency":0},{"responses":{"Q07":"3","Q08":"3","Q02":"3","Q11":"2","Q10":"2","Q06":"2","Q01":"3","Q05":"3","Q12":"1","Q03":"3","Q09":"2","Q13":"0","Q04":"2"},"rt":65356.299999952316,"item_order":[6,7,1,10,9,5,0,4,11,2,8,12,3],"radio_events":[3981.099999964237,11883.5,14507,22313.399999976158,25566.69999998808,29223.69999998808,31305.099999964237,34454.39999997616,38820.799999952316,42508.799999952316,45104.59999996424,48234.09999996424,61374.299999952316],"key_events":[],"mouse_events":[3015.699999988079,3542.7999999523163,3981.099999964237,9112.5,10240.699999988079,11883.5,14507,21736.19999998808,22313.399999976158,25566.69999998808,28070.399999976158,28714,29223.69999998808,30739.69999998808,31305.099999964237,34454.39999997616,38820.799999952316,42508.799999952316,45104.59999996424,48234.09999996424,61374.299999952316,65354.09999996424],"straightlining":0.46153846153846156,"zigzagging":0.25,"honeypot":0,"survey":"bisbas","trial_type":"survey-template","trial_index":3,"time_elapsed":209218,"internal_node_id":"0.0-3.0","task_version":"prescreen-v0.3","browser_interactions":0,"infrequency":0},{"responses":{"Q01":"3","Q02":"2","Q03":"2"},"rt":16810.69999998808,"radio_events":[6582.899999976158,11259.600000023842,15864.199999988079],"key_events":[],"mouse_events":[6582.899999976158,11259.600000023842,15864.199999988079,16809.30000001192],"survey":"map","page":1,"trial_type":"survey-map","trial_index":4,"time_elapsed":226033,"internal_node_id":"0.0-4.0","task_version":"prescreen-v0.3","browser_interactions":0},{"responses":{"Q04":"1","Q05":"1","Q06":"2"},"rt":13712.300000011921,"radio_events":[5023.900000035763,9723.900000035763,11693.100000023842],"key_events":[],"mouse_events":[4350.100000023842,5023.900000035763,8101.200000047684,8854.400000035763,9723.900000035763,11693.100000023842,13710.900000035763],"survey":"map","page":2,"trial_type":"survey-map","trial_index":5,"time_elapsed":239748,"internal_node_id":"0.0-5.0","task_version":"prescreen-v0.3","browser_interactions":0},{"responses":{"Q07":"3","Q08":"3","Q09":"1"},"rt":14685.699999988079,"radio_events":[4800.600000023842,9281.900000035763,13830.5],"key_events":[],"mouse_events":[4098.800000011921,4800.600000023842,8631.699999988079,9281.900000035763,12678.800000011921,13376.400000035763,13830.5,14684.300000011921],"survey":"map","page":3,"trial_type":"survey-map","trial_index":6,"time_elapsed":254437,"internal_node_id":"0.0-6.0","task_version":"prescreen-v0.3","browser_interactions":0},{"responses":{"Q10":"1","Q11":"1","Q12":"2","Q13":"1","Q16":"0","Q14":"2","Q15":"2"},"rt":57168.5,"radio_events":[6833.700000047684,10385.600000023842,16295.100000023842,20995.700000047684,27135.900000035763,53279,55467.5],"key_events":[],"mouse_events":[6315.200000047684,6833.700000047684,9242.400000035763,9851.600000023842,10385.600000023842,16295.100000023842,20995.700000047684,27135.900000035763,53279,55467.5,57166.60000002384],"survey":"map","page":4,"trial_type":"survey-map","trial_index":7,"time_elapsed":311610,"internal_node_id":"0.0-7.0","task_version":"prescreen-v0.3","browser_interactions":2,"infrequency":0},{"view_history":[{"page_index":0,"viewing_time":2598.899999976158},{"page_index":1,"viewing_time":3597.5}],"rt":6197,"trial_type":"instructions","trial_index":8,"time_elapsed":317809,"internal_node_id":"0.0-8.0","task_version":"prescreen-v0.3"},{"responses":{"01":"No","02":"Yes","02_ages_8":"8","02_ages_9":"9","02_ages_10":"10","02_ages_11":"11","02_ages_12":"12","02_ages_13":"13","02_ages_14":"14","02_ages_15":"15","02_ages_16":"16","02_ages_17":"17","02_ages_18":"18","03":"No","04":"No","05":"No","06":"No"},"rt":50094.89999997616,"item_order":[0,1,2,3,4,5],"radio_events":[9093.599999964237,20169.30000001192,23319.19999998808,42166.80000001192,43977.09999996424,45907.09999996424,48932.89999997616],"checkbox_events":[29731.599999964237,31660.69999998808,32936.69999998808,34830.89999997616,36027.30000001192,36481.59999996424,36920,37446,37992.59999996424,38550.89999997616,39068.5],"key_events":[],"mouse_events":[0.09999996423721313,8412.800000011921,9093.599999964237,19650.80000001192,20169.30000001192,23319.19999998808,29731.599999964237,30736.099999964237,31126.19999998808,31660.69999998808,32347.19999998808,32936.69999998808,34830.89999997616,35269.39999997616,36027.30000001192,36481.59999996424,36920,37446,37992.59999996424,38550.89999997616,39068.5,42166.80000001192,43977.09999996424,45907.09999996424,48932.89999997616,50089.19999998808],"honeypot":0,"survey":"mace","page":1,"trial_type":"survey-mace","trial_index":9,"time_elapsed":367913,"internal_node_id":"0.0-9.0","task_version":"prescreen-v0.3","browser_interactions":0},{"responses":{"01":"No","02":"No","03":"Yes","03_ages_2":"2","03_ages_3":"3","03_ages_4":"4","03_ages_5":"5","03_ages_6":"6","03_ages_7":"7","03_ages_8":"8","03_ages_9":"9","03_ages_10":"10","03_ages_11":"11","04":"Yes","04_ages_2":"2","04_ages_3":"3","04_ages_4":"4","04_ages_5":"5","04_ages_6":"6","04_ages_7":"7","04_ages_8":"8","05":"Yes","05_ages_3":"3","05_ages_4":"4","05_ages_5":"5","05_ages_6":"6","05_ages_7":"7","06":"No","07":"No","08":"No"},"rt":47374.69999998808,"item_order":[0,1,2,3,4,5,6,7],"radio_events":[6222,6899.600000023842,8467.199999988079,26342.19999998808,33410.89999997616,43526.69999998808,45265.30000001192,46716.69999998808],"checkbox_events":[10708.899999976158,11083.300000011921,11649.300000011921,12733.300000011921,13395.199999988079,14209.100000023842,18360,20620.100000023842,21872.19999998808,22223.19999998808,27220.19999998808,27530.69999998808,28160.30000001192,28503.399999976158,28902.19999998808,29444.19999998808,31530.5,35305.5,37051.39999997616,37402.60000002384,39280.10000002384,41018.5],"key_events":[],"mouse_events":[2003.6000000238419,5552.100000023842,6222,6899.600000023842,8467.199999988079,10708.899999976158,11083.300000011921,11649.300000011921,12366.600000023842,12733.300000011921,13395.199999988079,14209.100000023842,17993.19999998808,18360,20205.399999976158,20620.100000023842,21872.19999998808,22223.19999998808,25688.600000023842,26342.19999998808,27220.19999998808,27530.69999998808,28160.30000001192,28503.399999976158,28902.19999998808,29444.19999998808,31530.5,33410.89999997616,34587.5,35305.5,35624.39999997616,36373.10000002384,37051.39999997616,37402.60000002384,39280.10000002384,39687.10000002384,40245.30000001192,41018.5,43024.19999998808,43526.69999998808,45265.30000001192,46716.69999998808,47366.60000002384],"honeypot":0,"survey":"mace","page":2,"trial_type":"survey-mace","trial_index":10,"time_elapsed":415293,"internal_node_id":"0.0-10.0","task_version":"prescreen-v0.3","browser_interactions":0},{"responses":{"01":"No","02":"No","03":"No","04":"No"},"rt":10215.199999988079,"item_order":[0,1,2,3],"radio_events":[3329.2999999523163,5139.599999964237,7703.199999988079,8899.699999988079],"checkbox_events":[],"key_events":[],"mouse_events":[3329.2999999523163,5139.599999964237,7248.5,7703.199999988079,8899.699999988079,10211.5],"honeypot":0,"survey":"mace","page":3,"trial_type":"survey-mace","trial_index":11,"time_elapsed":425513,"internal_node_id":"0.0-11.0","task_version":"prescreen-v0.3","browser_interactions":0},{"responses":{"01":"No","02":"No"},"rt":7048,"item_order":[0,1],"radio_events":[2217.5,5543],"checkbox_events":[],"key_events":[],"mouse_events":[2217.5,5543,7045.899999976158],"honeypot":0,"survey":"mace","page":4,"trial_type":"survey-mace","trial_index":12,"time_elapsed":432564,"internal_node_id":"0.0-12.0","task_version":"prescreen-v0.3","browser_interactions":0},{"responses":{"01":"No","02":"No","03":"No","04":"No","05":"No"},"rt":18617.19999998808,"item_order":[0,1,2,3,4],"radio_events":[5665.300000011921,8022,11068.399999976158,15386.100000023842,17918],"checkbox_events":[],"key_events":[],"mouse_events":[5665.300000011921,8022,11068.399999976158,15386.100000023842,17918,18612],"honeypot":0,"survey":"mace","page":5,"trial_type":"survey-mace","trial_index":13,"time_elapsed":451185,"internal_node_id":"0.0-13.0","task_version":"prescreen-v0.3","browser_interactions":0},{"responses":{"01":"Yes","01_ages_8":"8","01_ages_9":"9","01_ages_10":"10","01_ages_11":"11","01_ages_12":"12","01_ages_13":"13","01_ages_14":"14","01_ages_15":"15","01_ages_16":"16","02":"Yes","02_ages_9":"9","02_ages_10":"10","02_ages_11":"11","02_ages_12":"12","02_ages_13":"13","02_ages_14":"14","02_ages_15":"15","02_ages_16":"16","02_ages_17":"17","03":"No","04":"Yes","04_ages_11":"11","04_ages_12":"12","04_ages_13":"13","04_ages_14":"14","05":"No"},"rt":54401,"item_order":[0,1,2,3,4],"radio_events":[2315.199999988079,12159.799999952316,17993,40979.19999998808,43252.39999997616,49687.09999996424],"checkbox_events":[20899.799999952316,21505.69999998808,21864.5,22247.19999998808,22733.69999998808,23583,24140.899999976158,25496.799999952316,27171.299999952316,32159.299999952316,32525.799999952316,32853.39999997616,33235.5,34093.5,34467.69999998808,34842.59999996424,35385,36708.299999952316,45441.09999996424,45847.299999952316,46182.59999996424,46876.299999952316],"key_events":[],"mouse_events":[2315.199999988079,12159.799999952316,17993,20899.799999952316,21218.799999952316,21505.69999998808,21864.5,22247.19999998808,22733.69999998808,23583,24140.899999976158,25496.799999952316,27171.299999952316,32159.299999952316,32525.799999952316,32853.39999997616,33235.5,33634,34093.5,34467.69999998808,34842.59999996424,35385,36708.299999952316,40979.19999998808,43252.39999997616,44524,44962.19999998808,45441.09999996424,45847.299999952316,46182.59999996424,46532.89999997616,46876.299999952316,49687.09999996424,54396.09999996424],"honeypot":0,"survey":"mace","page":6,"trial_type":"survey-mace","trial_index":14,"time_elapsed":505592,"internal_node_id":"0.0-14.0","task_version":"prescreen-v0.3","browser_interactions":0},{"responses":{"01":"No","02":"No","03":"No","04":"No","05":"No","06":"No","07":"No"},"rt":22924.5,"item_order":[0,1,2,3,4,5,6],"radio_events":[2709.600000023842,4432.400000035763,14766.800000011921,17450.400000035763,20608.30000001192,21800.600000023842,22510.30000001192],"checkbox_events":[],"key_events":[],"mouse_events":[2709.600000023842,4081.400000035763,4432.400000035763,14766.800000011921,17450.400000035763,20608.30000001192,21800.600000023842,22510.30000001192,22917.400000035763],"honeypot":0,"survey":"mace","page":7,"trial_type":"survey-mace","trial_index":15,"time_elapsed":528522,"internal_node_id":"0.0-15.0","task_version":"prescreen-v0.3","browser_interactions":0},{"responses":{"01":"No","02":"No","03":"No","04":"No"},"rt":19072,"item_order":[0,1,2,3],"radio_events":[8956.800000011921,11508.899999976158,15771,18398.80000001192],"checkbox_events":[],"key_events":[],"mouse_events":[8956.800000011921,11508.899999976158,15771,18398.80000001192,19068.30000001192],"honeypot":0,"survey":"mace","page":8,"trial_type":"survey-mace","trial_index":16,"time_elapsed":547597,"internal_node_id":"0.0-16.0","task_version":"prescreen-v0.3","browser_interactions":0},{"responses":{"01":"Yes","01_ages_1":"1","01_ages_2":"2","01_ages_3":"3","01_ages_4":"4","01_ages_5":"5","01_ages_6":"6","01_ages_7":"7","01_ages_8":"8","01_ages_9":"9","01_ages_10":"10","01_ages_11":"11","01_ages_12":"12","01_ages_13":"13","01_ages_14":"14","01_ages_15":"15","01_ages_16":"16","01_ages_17":"17","01_ages_18":"18","02":"Yes","02_ages_1":"1","02_ages_2":"2","02_ages_3":"3","02_ages_4":"4","02_ages_5":"5","02_ages_6":"6","02_ages_7":"7","02_ages_8":"8","02_ages_9":"9","02_ages_10":"10","02_ages_11":"11","02_ages_12":"12","02_ages_13":"13","02_ages_14":"14","02_ages_15":"15","02_ages_16":"16","02_ages_17":"17","02_ages_18":"18","03":"Yes","03_ages_1":"1","03_ages_2":"2","03_ages_3":"3","03_ages_4":"4","03_ages_5":"5","03_ages_6":"6","03_ages_7":"7","03_ages_8":"8","03_ages_9":"9","03_ages_10":"10","03_ages_11":"11","03_ages_12":"12","03_ages_13":"13","03_ages_14":"14","03_ages_15":"15","03_ages_16":"16","03_ages_17":"17","03_ages_18":"18","04":"Yes","04_ages_1":"1","04_ages_2":"2","04_ages_3":"3","04_ages_4":"4","04_ages_5":"5","04_ages_6":"6","04_ages_7":"7","04_ages_8":"8","04_ages_9":"9","04_ages_10":"10","04_ages_11":"11","04_ages_12":"12","04_ages_13":"13","04_ages_14":"14","04_ages_15":"15","04_ages_16":"16","04_ages_17":"17","04_ages_18":"18"},"rt":70914.30000001192,"item_order":[0,1,2,3],"radio_events":[4598.199999988079,21121.600000023842,37648,54140.19999998808],"checkbox_events":[7545.400000035763,8302.400000035763,8868.600000023842,9857.100000023842,10303.900000035763,11304.800000011921,11703.400000035763,12173.699999988079,12636.699999988079,13569.699999988079,15009.199999988079,17010.900000035763,17481.400000035763,18126.900000035763,18669.19999998808,19243.19999998808,19869.69999998808,20347.400000035763,23035.600000023842,23553.900000035763,24359,24510.69999998808,25582.900000035763,26364.69999998808,26930.600000023842,27448.900000035763,30104.19999998808,30882,31448.100000023842,31926.80000001192,32413.30000001192,32907.80000001192,33481.80000001192,34088.30000001192,34566.60000002384,35120.80000001192,35687.30000001192,36444.5,38510,39223.5,39598.69999998808,41320.30000001192,41886.90000003576,42373.30000001192,42923.69999998808,44139.80000001192,44506.40000003576,44985.19999998808,45598.80000001192,46077.19999998808,46619.19999998808,47281.40000003576,48039.10000002384,48649.19999998808,49071.5,50252.10000002384,56165.60000002384,58776.80000001192,59167.80000001192,59917.19999998808,60403.69999998808,61005.69999998808,62481.40000003576,63716.80000001192,64683.69999998808,65698.19999998808,66217.19999998808,66639.80000001192,67205.5,67772.30000001192,68377.80000001192,68936.60000002384,69542.5,70240.10000002384],"key_events":[],"mouse_events":[3250.199999988079,4598.199999988079,7545.400000035763,8302.400000035763,8868.600000023842,9338.5,9857.100000023842,10303.900000035763,10750.600000023842,11304.800000011921,11703.400000035763,12173.699999988079,12636.699999988079,13569.699999988079,15009.199999988079,15607.100000023842,17010.900000035763,17481.400000035763,18126.900000035763,18669.19999998808,19243.19999998808,19869.69999998808,20347.400000035763,21121.600000023842,22461.19999998808,23035.600000023842,23553.900000035763,24047.80000001192,24359,24510.69999998808,25248.30000001192,25582.900000035763,26364.69999998808,26930.600000023842,27448.900000035763,27935.400000035763,29474.69999998808,30104.19999998808,30447.100000023842,30882,31448.100000023842,31926.80000001192,32413.30000001192,32907.80000001192,33481.80000001192,34088.30000001192,34566.60000002384,35120.80000001192,35687.30000001192,36444.5,37648,38510,38820.90000003576,39223.5,39598.69999998808,39996.90000003576,40387.60000002384,40961.60000002384,41320.30000001192,41886.90000003576,42373.30000001192,42923.69999998808,44139.80000001192,44506.40000003576,44985.19999998808,45598.80000001192,46077.19999998808,46619.19999998808,47281.40000003576,48039.10000002384,48649.19999998808,49071.5,50252.10000002384,54140.19999998808,56165.60000002384,56735.69999998808,57253.80000001192,57867.80000001192,58776.80000001192,59167.80000001192,59917.19999998808,60403.69999998808,61005.69999998808,61596.10000002384,62481.40000003576,63716.80000001192,64683.69999998808,65698.19999998808,66217.19999998808,66639.80000001192,67205.5,67772.30000001192,68377.80000001192,68936.60000002384,69542.5,70240.10000002384,70910.5],"honeypot":0,"survey":"mace","page":9,"trial_type":"survey-mace","trial_index":17,"time_elapsed":618518,"internal_node_id":"0.0-17.0","task_version":"prescreen-v0.3","browser_interactions":0},{"responses":{"01":"No","02":"No","03":"No","04":"No","05":"No","06":"Yes","06_ages_17":"17","07":"Yes","07_ages_1":"1","07_ages_2":"2","07_ages_3":"3","07_ages_4":"4","07_ages_5":"5","07_ages_6":"6","07_ages_7":"7","07_ages_8":"8","07_ages_9":"9","07_ages_10":"10","07_ages_11":"11","07_ages_12":"12","07_ages_13":"13","07_ages_14":"14","07_ages_15":"15","07_ages_16":"16","07_ages_17":"17","07_ages_18":"18","08":"Yes","08_ages_1":"1","08_ages_2":"2","08_ages_3":"3","08_ages_4":"4","08_ages_5":"5","08_ages_6":"6","08_ages_7":"7","08_ages_8":"8","08_ages_9":"9","08_ages_10":"10","08_ages_11":"11","08_ages_12":"12","08_ages_13":"13","08_ages_14":"14","08_ages_15":"15","08_ages_16":"16","08_ages_17":"17","08_ages_18":"18"},"rt":46828.5,"item_order":[0,1,2,3,4,5,6,7],"radio_events":[3109.399999976158,3747.5,5306.799999952316,7172.599999964237,10114.799999952316,12080.799999952316,19245.5,34864.59999996424],"checkbox_events":[13587.5,21562.399999976158,21936.799999952316,22264.099999964237,23794.799999952316,24281.19999998808,24855.299999952316,25441.69999998808,26334.5,27427.299999952316,27857.399999976158,28320.099999964237,28846.799999952316,29276.899999976158,30058.299999952316,30696.899999976158,32032.099999964237,32838.19999998808,33468,36119,36541.299999952316,37075.69999998808,37594.299999952316,38136.299999952316,38662.69999998808,39117,39591.59999996424,40118,40668.5,41202.299999952316,41744.69999998808,42311.19999998808,42773.69999998808,43387.19999998808,43933.59999996424,44499.799999952316,44970.299999952316],"key_events":[],"mouse_events":[2168.599999964237,3109.399999976158,3747.5,5306.799999952316,7172.599999964237,10114.799999952316,12080.799999952316,13587.5,19245.5,21562.399999976158,21936.799999952316,22264.099999964237,22750,23371.69999998808,23794.799999952316,24281.19999998808,24855.299999952316,25441.69999998808,25904,26334.5,26884.899999976158,27427.299999952316,27857.399999976158,28320.099999964237,28846.799999952316,29276.899999976158,30058.299999952316,30696.899999976158,31514.299999952316,32032.099999964237,32430.899999976158,32838.19999998808,33468,34264.89999997616,34864.59999996424,36119,36541.299999952316,37075.69999998808,37594.299999952316,38136.299999952316,38662.69999998808,39117,39591.59999996424,40118,40668.5,41202.299999952316,41744.69999998808,42311.19999998808,42773.69999998808,43387.19999998808,43933.59999996424,44499.799999952316,44970.299999952316,46405.5,46820.89999997616],"honeypot":0,"survey":"mace","page":10,"trial_type":"survey-mace","trial_index":18,"time_elapsed":665352,"internal_node_id":"0.0-18.0","task_version":"prescreen-v0.3","browser_interactions":0,"instructed":0},{"rt":3492.899999976158,"trial_type":"mental-health-alert","trial_index":19,"time_elapsed":668847,"internal_node_id":"0.0-19.0","task_version":"prescreen-v0.3","interactions":"[{\"event\":\"blur\",\"trial\":7,\"time\":287564},{\"event\":\"focus\",\"trial\":7,\"time\":299857}]"}]