[{"view_history":[{"page_index":0,"viewing_time":3784.7000000178814},{"page_index":1,"viewing_time":3020.5999999940395},{"page_index":2,"viewing_time":3416.199999988079},{"page_index":3,"viewing_time":1370.800000011921}],"rt":11594.300000011921,"trial_type":"instructions","trial_index":0,"time_elapsed":11635,"internal_node_id":"0.0-0.0","task_version":"prescreen-v0.3"},{"rt":12086,"responses":{"age":"22","gender-categorical":"Female","gender-free-response":"","ethnicity":"Not Hispanic or Latino","race":["White"],"education":"Bachelor degree"},"trial_type":"survey-demo","trial_index":1,"time_elapsed":23734,"internal_node_id":"0.0-1.0","task_version":"prescreen-v0.3"},{"responses":{"Q14":"1","Q21":"3","Q02":"0","Q09":"0","Q06":"1","Q03":"0","Q07":"2","Q17":"0","Q19":"0","Q18":"0","Q05":"0","Q11":"0","Q20":"0","Q08":"0","Q04":"0","Q01":"0","Q10":"0","Q15":"0","Q13":"0","Q16":"1","Q12":"0"},"rt":74239.30000001192,"item_order":[13,20,1,8,5,2,6,16,18,17,4,10,19,7,3,0,9,14,12,15,11],"radio_events":[10605,12571.5,16484.19999998808,19211.80000001192,23431.40000000596,24640.30000001192,26374.09999999404,32653.59999999404,35935.59999999404,39056.90000000596,40828.30000001192,48083.5,53307.80000001192,54555.59999999404,55742,58769.90000000596,59917.19999998808,61983.80000001192,63511.19999998808,67008.59999999404,70760.69999998808,73279.09999999404],"key_events":[],"mouse_events":[6859.199999988079,10605,12571.5,14366.5,16484.19999998808,17538.19999998808,19211.80000001192,23431.40000000596,24640.30000001192,26374.09999999404,28405.09999999404,31061,32653.59999999404,35935.59999999404,39056.90000000596,40828.30000001192,48083.5,51112.19999998808,53307.80000001192,54555.59999999404,55742,58769.90000000596,59917.19999998808,61983.80000001192,63511.19999998808,66197.19999998808,67008.59999999404,70760.69999998808,73279.09999999404,74234.19999998808],"straightlining":0.7619047619047619,"zigzagging":0.25,"honeypot":0,"survey":"sns","trial_type":"survey-template","trial_index":2,"time_elapsed":97993,"internal_node_id":"0.0-2.0","task_version":"prescreen-v0.3","browser_interactions":0,"infrequency":0},{"responses":{"Q11":"3","Q04":"3","Q12":"2","Q06":"3","Q02":"2","Q09":"2","Q05":"3","Q08":"3","Q13":"0","Q10":"2","Q07":"2","Q01":"3","Q03":"3"},"rt":42682.59999999404,"item_order":[10,3,11,5,1,8,4,7,12,9,6,0,2],"radio_events":[7398,9266.199999988079,12667.90000000596,15515.5,18537.59999999404,22505.79999998212,23689.09999999404,26259.69999998808,30493,35769.29999998212,36923.90000000596,39156.59999999404,41919.59999999404],"key_events":[],"mouse_events":[7398,9266.199999988079,12667.90000000596,15515.5,17280.69999998808,18537.59999999404,20805.90000000596,22505.79999998212,23689.09999999404,26259.69999998808,30493,34224.5,35769.29999998212,36923.90000000596,39156.59999999404,41919.59999999404,42679.09999999404],"straightlining":0.5384615384615384,"zigzagging":0.5,"honeypot":0,"survey":"bisbas","trial_type":"survey-template","trial_index":3,"time_elapsed":140691,"internal_node_id":"0.0-3.0","task_version":"prescreen-v0.3","browser_interactions":0,"infrequency":0},{"responses":{"Q01":"4","Q02":"3","Q03":"4"},"rt":15605,"radio_events":[4848,10028,14450.300000011921],"key_events":[],"mouse_events":[4848,10028,13550.800000011921,14450.300000011921,15603.200000017881],"survey":"map","page":1,"trial_type":"survey-map","trial_index":4,"time_elapsed":156313,"internal_node_id":"0.0-4.0","task_version":"prescreen-v0.3","browser_interactions":0},{"responses":{"Q04":"4","Q05":"2","Q06":"3"},"rt":8818.799999982119,"radio_events":[3678.699999988079,6190.699999988079,7840.0999999940395],"key_events":[],"mouse_events":[3678.699999988079,6190.699999988079,7840.0999999940395,8817.299999982119],"survey":"map","page":2,"trial_type":"survey-map","trial_index":5,"time_elapsed":165146,"internal_node_id":"0.0-5.0","task_version":"prescreen-v0.3","browser_interactions":0},{"responses":{"Q07":"1","Q08":"4","Q09":"3"},"rt":12804.699999988079,"radio_events":[4815.5,10028.09999999404,12030.199999988079],"key_events":[],"mouse_events":[4815.5,10028.09999999404,12030.199999988079,12803.199999988079],"survey":"map","page":3,"trial_type":"survey-map","trial_index":6,"time_elapsed":177963,"internal_node_id":"0.0-6.0","task_version":"prescreen-v0.3","browser_interactions":0},{"responses":{"Q10":"3","Q11":"3","Q12":"2","Q13":"2","Q16":"0","Q14":"4","Q15":"4"},"rt":30286,"radio_events":[4600.0999999940395,6414.699999988079,8769.800000011921,12460.09999999404,17289.80000001192,26710.80000001192,28868.80000001192],"key_events":[],"mouse_events":[4600.0999999940395,6414.699999988079,8769.800000011921,12460.09999999404,17289.80000001192,26710.80000001192,28868.80000001192,30283.19999998808],"survey":"map","page":4,"trial_type":"survey-map","trial_index":7,"time_elapsed":208265,"internal_node_id":"0.0-7.0","task_version":"prescreen-v0.3","browser_interactions":0,"infrequency":0},{"view_history":[{"page_index":0,"viewing_time":2741.2999999821186},{"page_index":1,"viewing_time":4565}],"rt":7308.5,"trial_type":"instructions","trial_index":8,"time_elapsed":215584,"internal_node_id":"0.0-8.0","task_version":"prescreen-v0.3"},{"responses":{"01":"No","02":"No","03":"No","04":"No","05":"No","06":"No"},"rt":28387.69999998808,"item_order":[0,1,2,3,4,5],"radio_events":[10907.399999976158,19272.59999999404,20555.69999998808,22911.09999999404,24763.79999998212,26198.19999998808,27438.399999976158],"checkbox_events":[],"key_events":[],"mouse_events":[0.5,10144.899999976158,10907.399999976158,13072.5,14264.899999976158,19272.59999999404,20555.69999998808,22911.09999999404,24763.79999998212,26198.19999998808,27438.399999976158,28379.59999999404],"honeypot":0,"survey":"mace","page":1,"trial_type":"survey-mace","trial_index":9,"time_elapsed":243991,"internal_node_id":"0.0-9.0","task_version":"prescreen-v0.3","browser_interactions":0},{"responses":{"01":"No","02":"No","03":"Yes","03_ages_6":"6","03_ages_7":"7","03_ages_8":"8","03_ages_9":"9","04":"Yes","04_ages_6":"6","04_ages_7":"7","04_ages_8":"8","04_ages_9":"9","05":"No","06":"No","07":"No","08":"No"},"rt":29248.69999998808,"item_order":[0,1,2,3,4,5,6,7],"radio_events":[3232.5999999940395,4539.4000000059605,7400.9000000059605,16722.5,22355.09999999404,24659.19999998808,26545.19999998808,27515.90000000596],"checkbox_events":[10637.59999999404,11242.199999988079,13544.5,14626.799999982119,17871.29999998212,18617.59999999404,19495.5,20288.90000000596],"key_events":[],"mouse_events":[3232.5999999940395,4539.4000000059605,7400.9000000059605,10637.59999999404,11242.199999988079,12045.199999988079,13544.5,14626.799999982119,16722.5,17871.29999998212,18617.59999999404,19495.5,20288.90000000596,22355.09999999404,24659.19999998808,26545.19999998808,27515.90000000596,29238.09999999404],"honeypot":0,"survey":"mace","page":2,"trial_type":"survey-mace","trial_index":10,"time_elapsed":273259,"internal_node_id":"0.0-10.0","task_version":"prescreen-v0.3","browser_interactions":0},{"responses":{"01":"Yes","01_ages_7":"7","01_ages_8":"8","01_ages_9":"9","01_ages_10":"10","01_ages_11":"11","01_ages_12":"12","01_ages_13":"13","02":"No","03":"No","04":"No"},"rt":23030.90000000596,"item_order":[0,1,2,3],"radio_events":[3689.5999999940395,18084.40000000596,20328.70000001788,20422.80000001192,21491.20000001788],"checkbox_events":[6277.800000011921,7477.0999999940395,9580.200000017881,10520.5,11329.40000000596,12391.59999999404,13195.5,14100.09999999404,16841.30000001192],"key_events":[],"mouse_events":[3689.5999999940395,6277.800000011921,7477.0999999940395,9580.200000017881,10520.5,11329.40000000596,12391.59999999404,13195.5,14100.09999999404,16841.30000001192,18084.40000000596,20328.70000001788,20422.80000001192,21491.20000001788,23025.80000001192],"honeypot":0,"survey":"mace","page":3,"trial_type":"survey-mace","trial_index":11,"time_elapsed":296305,"internal_node_id":"0.0-11.0","task_version":"prescreen-v0.3","browser_interactions":0},{"responses":{"01":"No","02":"No"},"rt":10446.700000017881,"item_order":[0,1],"radio_events":[8393.200000017881,9526.800000011921],"checkbox_events":[],"key_events":[],"mouse_events":[4633.200000017881,6304.100000023842,6943.700000017881,8393.200000017881,9526.800000011921,10443.300000011921],"honeypot":0,"survey":"mace","page":4,"trial_type":"survey-mace","trial_index":12,"time_elapsed":306766,"internal_node_id":"0.0-12.0","task_version":"prescreen-v0.3","browser_interactions":0},{"responses":{"01":"No","02":"No","03":"No","04":"No","05":"No"},"rt":13815.200000017881,"item_order":[0,1,2,3,4],"radio_events":[5745.300000011921,7165.9000000059605,8663.90000000596,11914.90000000596,12992.700000017881],"checkbox_events":[],"key_events":[],"mouse_events":[4072.600000023842,5745.300000011921,7165.9000000059605,8663.90000000596,11914.90000000596,12992.700000017881,13808.700000017881],"honeypot":0,"survey":"mace","page":5,"trial_type":"survey-mace","trial_index":13,"time_elapsed":320598,"internal_node_id":"0.0-13.0","task_version":"prescreen-v0.3","browser_interactions":0},{"responses":{"01":"Yes","01_ages_5":"5","01_ages_6":"6","01_ages_7":"7","01_ages_8":"8","01_ages_9":"9","01_ages_10":"10","01_ages_11":"11","01_ages_12":"12","01_ages_13":"13","02":"Yes","02_ages_5":"5","02_ages_6":"6","02_ages_7":"7","02_ages_8":"8","02_ages_9":"9","02_ages_10":"10","02_ages_11":"11","02_ages_12":"12","02_ages_13":"13","03":"Yes","03_ages_5":"5","03_ages_6":"6","03_ages_7":"7","03_ages_8":"8","03_ages_9":"9","03_ages_10":"10","03_ages_11":"11","03_ages_12":"12","03_ages_13":"13","04":"Yes","04_ages_5":"5","04_ages_6":"6","04_ages_7":"7","04_ages_8":"8","04_ages_9":"9","04_ages_10":"10","04_ages_11":"11","04_ages_12":"12","04_ages_13":"13","05":"No"},"rt":51064.30000001192,"item_order":[0,1,2,3,4],"radio_events":[5059.300000011921,5150.5,20626.5,30776,41548.5,50190],"checkbox_events":[6321.200000017881,8717,9635.300000011921,10890.5,11701.90000000596,14220,15031.5,15761.5,17261.70000001788,22069.600000023842,22730.70000001788,24151.5,24897.30000001192,25378.90000000596,25894.100000023842,26977.80000001192,27593.90000000596,28297.600000023842,33297.40000000596,34524.90000000596,35356.5,36153.60000002384,37079.80000001192,37883.10000002384,38370.80000001192,38822.60000002384,39239.10000002384,43241.90000000596,43636.80000001192,44132.10000002384,44906.80000001192,45890.30000001192,46321.60000002384,46721.5,47217.30000001192,47606.10000002384],"key_events":[],"mouse_events":[5059.300000011921,5150.5,6321.200000017881,7122.800000011921,7832.600000023842,8717,9635.300000011921,10890.5,11701.90000000596,12805.90000000596,13416.100000023842,14220,15031.5,15761.5,17261.70000001788,20626.5,22069.600000023842,22730.70000001788,24151.5,24897.30000001192,25378.90000000596,25894.100000023842,26432.90000000596,26977.80000001192,27593.90000000596,28297.600000023842,30294.70000001788,30776,31727.600000023842,32409.100000023842,33297.40000000596,34009,34524.90000000596,35356.5,36153.60000002384,36641.10000002384,37079.80000001192,37883.10000002384,38370.80000001192,38822.60000002384,39239.10000002384,41548.5,42876.60000002384,43241.90000000596,43636.80000001192,44132.10000002384,44555,44906.80000001192,45890.30000001192,46321.60000002384,46721.5,47217.30000001192,47606.10000002384,49695.40000000596,50190,51057.30000001192],"honeypot":0,"survey":"mace","page":6,"trial_type":"survey-mace","trial_index":14,"time_elapsed":371679,"internal_node_id":"0.0-14.0","task_version":"prescreen-v0.3","browser_interactions":0},{"responses":{"01":"No","02":"No","03":"No","04":"No","05":"No","06":"No","07":"No"},"rt":14637.399999976158,"item_order":[0,1,2,3,4,5,6],"radio_events":[2912.5999999940395,4115.699999988079,8111.299999982119,9425.699999988079,10575.299999982119,10666.5,11823.799999982119,13744.799999982119],"checkbox_events":[],"key_events":[],"mouse_events":[2912.5999999940395,4115.699999988079,5599.899999976158,7201.399999976158,8111.299999982119,9425.699999988079,10575.299999982119,10666.5,11823.799999982119,13744.799999982119,14628.199999988079],"honeypot":0,"survey":"mace","page":7,"trial_type":"survey-mace","trial_index":15,"time_elapsed":386337,"internal_node_id":"0.0-15.0","task_version":"prescreen-v0.3","browser_interactions":0},{"responses":{"01":"No","02":"No","03":"No","04":"No"},"rt":11556.700000017881,"item_order":[0,1,2,3],"radio_events":[4456.200000017881,7526.700000017881,8813.200000017881,10799.59999999404],"checkbox_events":[],"key_events":[],"mouse_events":[4456.200000017881,7526.700000017881,8813.200000017881,10002.700000017881,10799.59999999404,11552.09999999404],"honeypot":0,"survey":"mace","page":8,"trial_type":"survey-mace","trial_index":16,"time_elapsed":397909,"internal_node_id":"0.0-16.0","task_version":"prescreen-v0.3","browser_interactions":0},{"responses":{"01":"Yes","01_ages_1":"1","01_ages_2":"2","01_ages_3":"3","01_ages_4":"4","01_ages_5":"5","01_ages_6":"6","01_ages_7":"7","01_ages_8":"8","01_ages_9":"9","01_ages_10":"10","01_ages_11":"11","01_ages_12":"12","01_ages_13":"13","01_ages_14":"14","01_ages_15":"15","01_ages_16":"16","01_ages_17":"17","01_ages_18":"18","02":"Yes","02_ages_1":"1","02_ages_2":"2","02_ages_3":"3","02_ages_4":"4","02_ages_5":"5","02_ages_6":"6","02_ages_7":"7","02_ages_8":"8","02_ages_9":"9","02_ages_10":"10","02_ages_11":"11","02_ages_12":"12","02_ages_13":"13","02_ages_14":"14","02_ages_15":"15","02_ages_16":"16","02_ages_17":"17","02_ages_18":"18","03":"Yes","03_ages_1":"1","03_ages_2":"2","03_ages_3":"3","03_ages_4":"4","03_ages_5":"5","03_ages_6":"6","03_ages_7":"7","03_ages_8":"8","03_ages_9":"9","03_ages_10":"10","03_ages_11":"11","03_ages_12":"12","03_ages_13":"13","03_ages_14":"14","03_ages_15":"15","03_ages_16":"16","03_ages_17":"17","03_ages_18":"18","04":"Yes","04_ages_1":"1","04_ages_2":"2","04_ages_3":"3","04_ages_4":"4","04_ages_5":"5","04_ages_6":"6","04_ages_7":"7","04_ages_8":"8","04_ages_9":"9","04_ages_10":"10","04_ages_11":"11","04_ages_12":"12","04_ages_13":"13","04_ages_14":"14","04_ages_15":"15","04_ages_16":"16","04_ages_17":"17","04_ages_18":"18"},"rt":65579,"item_order":[0,1,2,3],"radio_events":[2948.800000011921,3893.800000011921,24711,25781.80000001192,52186.5],"checkbox_events":[7050.300000011921,8056.0999999940395,9792.5,10509.699999988079,11220.800000011921,12141.09999999404,12900.59999999404,13948.199999988079,15210.5,16135.699999988079,17047.09999999404,17814.90000000596,18497.69999998808,19488,20411.59999999404,21330.5,22336.80000001192,23082.5,27634.59999999404,28050.09999999404,28446.80000001192,28810.19999998808,29305.30000001192,29822.30000001192,30293.69999998808,30690.69999998808,31083.5,32470.09999999404,32995.40000000596,34894.80000001192,35339.69999998808,36156.19999998808,36587.40000000596,36990.69999998808,37406.09999999404,37938.09999999404,38574,39170.80000001192,40026.59999999404,40426,40886.69999998808,41789.40000000596,42465.19999998808,42931.40000000596,43460.09999999404,44244.59999999404,44804.09999999404,45411.59999999404,46129.59999999404,46927.80000001192,47552.59999999404,48239.59999999404,48929.30000001192,49301.80000001192,53384,53866.40000000596,54453.90000000596,54906.30000001192,55335.59999999404,55839,56269.69999998808,56705.80000001192,57123.59999999404,57569.59999999404,58692.59999999404,59678.80000001192,60257.59999999404,60847.90000000596,61734.80000001192,63451.90000000596,64290.80000001192,64720.09999999404],"key_events":[],"mouse_events":[2948.800000011921,3893.800000011921,7050.300000011921,8056.0999999940395,9792.5,10509.699999988079,11220.800000011921,12141.09999999404,12900.59999999404,13948.199999988079,15210.5,16135.699999988079,17047.09999999404,17814.90000000596,18497.69999998808,19488,20411.59999999404,21330.5,22336.80000001192,23082.5,24711,25781.80000001192,27282.69999998808,27634.59999999404,28050.09999999404,28446.80000001192,28810.19999998808,29305.30000001192,29822.30000001192,30293.69999998808,30690.69999998808,31083.5,32470.09999999404,32995.40000000596,33667.69999998808,33956.30000001192,34894.80000001192,35339.69999998808,35805.5,36156.19999998808,36587.40000000596,36990.69999998808,37406.09999999404,37938.09999999404,38574,39170.80000001192,39579.09999999404,40026.59999999404,40426,40886.69999998808,41789.40000000596,42170.40000000596,42465.19999998808,42931.40000000596,43460.09999999404,44244.59999999404,44804.09999999404,45411.59999999404,46129.59999999404,46547.30000001192,46927.80000001192,47552.59999999404,48239.59999999404,48929.30000001192,49301.80000001192,52186.5,53384,53866.40000000596,54453.90000000596,54906.30000001192,55335.59999999404,55839,56269.69999998808,56705.80000001192,57123.59999999404,57569.59999999404,58276.80000001192,58692.59999999404,59268.40000000596,59678.80000001192,60257.59999999404,60847.90000000596,61277.5,61734.80000001192,62268.59999999404,62558.09999999404,63451.90000000596,64290.80000001192,64720.09999999404,65573.90000000596],"honeypot":0,"survey":"mace","page":9,"trial_type":"survey-mace","trial_index":17,"time_elapsed":463503,"internal_node_id":"0.0-17.0","task_version":"prescreen-v0.3","browser_interactions":0},{"responses":{"01":"No","02":"No","03":"No","04":"No","05":"No","06":"Yes","06_ages_17":"17","07":"Yes","07_ages_1":"1","07_ages_2":"2","07_ages_3":"3","07_ages_4":"4","07_ages_5":"5","07_ages_6":"6","07_ages_7":"7","07_ages_8":"8","07_ages_9":"9","07_ages_10":"10","07_ages_11":"11","07_ages_12":"12","07_ages_13":"13","07_ages_14":"14","07_ages_15":"15","07_ages_16":"16","07_ages_17":"17","07_ages_18":"18","08":"Yes","08_ages_1":"1","08_ages_2":"2","08_ages_3":"3","08_ages_4":"4","08_ages_5":"5","08_ages_6":"6","08_ages_7":"7","08_ages_8":"8","08_ages_9":"9","08_ages_10":"10","08_ages_11":"11","08_ages_12":"12","08_ages_13":"13","08_ages_14":"14","08_ages_15":"15","08_ages_16":"16","08_ages_17":"17","08_ages_18":"18"},"rt":50455.30000001192,"item_order":[0,1,2,3,4,5,6,7],"radio_events":[2962.7000000178814,3940.4000000059605,5775.800000011921,6502,9054.40000000596,10825.90000000596,19079,36032.5],"checkbox_events":[12565,20607.70000001788,21989.70000001788,22744.90000000596,23259.70000001788,23740.70000001788,24252.80000001192,25140,25771.30000001192,26498.80000001192,27481,28311,28841.5,29368.20000001788,30371.5,30980.600000023842,31690.20000001788,32667.90000000596,33154.90000000596,33786.80000001192,34318.10000002384,37237.90000000596,37761.80000001192,38527.30000001192,39123.60000002384,40222.5,40822.70000001788,41441.5,42402.60000002384,43027,43605.90000000596,44250.90000000596,45357.20000001788,45945.30000001192,46528.40000000596,47333.5,47919.60000002384,48865.20000001788,49362.30000001192],"key_events":[],"mouse_events":[85.40000000596046,2962.7000000178814,3940.4000000059605,4841.4000000059605,5775.800000011921,6502,7605.100000023842,9054.40000000596,10825.90000000596,12175.100000023842,12565,18109.600000023842,19079,20276.70000001788,20607.70000001788,21346.100000023842,21989.70000001788,22744.90000000596,23259.70000001788,23740.70000001788,24252.80000001192,25140,25771.30000001192,26498.80000001192,27481,28311,28841.5,29368.20000001788,30045.40000000596,30371.5,30980.600000023842,31690.20000001788,32667.90000000596,33154.90000000596,33786.80000001192,34318.10000002384,36032.5,36980.70000001788,37237.90000000596,37761.80000001192,38234.20000001788,38527.30000001192,39123.60000002384,40222.5,40822.70000001788,41441.5,42402.60000002384,43027,43605.90000000596,44250.90000000596,44805.30000001192,45357.20000001788,45945.30000001192,46528.40000000596,47333.5,47919.60000002384,48865.20000001788,49362.30000001192,50445.20000001788],"honeypot":0,"survey":"mace","page":10,"trial_type":"survey-mace","trial_index":18,"time_elapsed":513978,"internal_node_id":"0.0-18.0","task_version":"prescreen-v0.3","browser_interactions":0,"instructed":0},{"rt":4536.5,"trial_type":"mental-health-alert","trial_index":19,"time_elapsed":518527,"internal_node_id":"0.0-19.0","task_version":"prescreen-v0.3","interactions":"[]"}]