[{"view_history":[{"page_index":0,"viewing_time":3788.7999999998137},{"page_index":1,"viewing_time":4421.40000000014},{"page_index":2,"viewing_time":3301.8000000000466},{"page_index":3,"viewing_time":1220.7999999998137}],"rt":12734.199999999953,"trial_type":"instructions","trial_index":0,"time_elapsed":12749,"internal_node_id":"0.0-0.0","task_version":"prescreen-v0.3"},{"rt":14280.299999999814,"responses":{"age":"27","gender-categorical":"Female","gender-free-response":"","ethnicity":"Not Hispanic or Latino","race":["White"],"education":"Bachelor degree"},"trial_type":"survey-demo","trial_index":1,"time_elapsed":27040,"internal_node_id":"0.0-1.0","task_version":"prescreen-v0.3"},{"responses":{"Q19":"1","Q20":"0","Q12":"1","Q04":"0","Q09":"0","Q17":"0","Q15":"2","Q02":"1","Q18":"1","Q16":"2","Q10":"0","Q21":"3","Q14":"2","Q13":"1","Q06":"1","Q01":"1","Q07":"1","Q05":"0","Q03":"0","Q08":"1","Q11":"1"},"rt":100809.69999999995,"item_order":[18,19,11,3,8,16,14,1,17,15,9,20,13,12,5,0,6,4,2,7,10],"radio_events":[7048.399999999907,9634.199999999953,16016.699999999953,21206.59999999986,24761.199999999953,28270.199999999953,29579.899999999907,35117.5,39089.299999999814,42255.799999999814,47249,51500.39999999991,52605.799999999814,57104.69999999995,62383.89999999991,65815.5,70554.79999999981,72438.19999999995,85612.8999999999,92092.29999999981,96398.79999999981,97825.59999999986,99583.5],"key_events":[],"mouse_events":[7048.399999999907,9634.199999999953,16016.699999999953,21206.59999999986,24761.199999999953,28270.199999999953,29579.899999999907,35117.5,39089.299999999814,42255.799999999814,47249,51500.39999999991,52605.799999999814,57104.69999999995,62383.89999999991,65815.5,70554.79999999981,72438.19999999995,85612.8999999999,92092.29999999981,95165.79999999981,96398.79999999981,97825.59999999986,99583.5,100803.79999999981],"straightlining":0.47619047619047616,"zigzagging":0.5,"honeypot":0,"survey":"sns","trial_type":"survey-template","trial_index":2,"time_elapsed":127860,"internal_node_id":"0.0-2.0","task_version":"prescreen-v0.3","browser_interactions":0,"infrequency":0},{"responses":{"Q09":"2","Q08":"3","Q06":"3","Q10":"2","Q01":"2","Q02":"2","Q05":"3","Q07":"3","Q13":"0","Q12":"2","Q03":"3","Q04":"3","Q11":"2"},"rt":48703.60000000009,"item_order":[8,7,5,9,0,1,4,6,12,11,2,3,10],"radio_events":[9677.800000000047,12912.600000000093,15460.40000000014,20893.800000000047,22296.90000000014,24360.699999999953,26204.100000000093,29701.600000000093,33079,36327.60000000009,40704.40000000014,45501.80000000005,47762.10000000009],"key_events":[],"mouse_events":[9677.800000000047,12912.600000000093,15460.40000000014,20893.800000000047,22296.90000000014,24360.699999999953,26204.100000000093,29701.600000000093,33079,36327.60000000009,40704.40000000014,45501.80000000005,47762.10000000009,48700.69999999995],"straightlining":0.46153846153846156,"zigzagging":0.5,"honeypot":0,"survey":"bisbas","trial_type":"survey-template","trial_index":3,"time_elapsed":176569,"internal_node_id":"0.0-3.0","task_version":"prescreen-v0.3","browser_interactions":0,"infrequency":0},{"responses":{"Q01":"3","Q02":"3","Q03":"4"},"rt":21519,"radio_events":[4681.40000000014,12502.5,17537.40000000014,20635.200000000186],"key_events":[],"mouse_events":[4681.40000000014,12502.5,17537.40000000014,20635.200000000186,21516.40000000014],"survey":"map","page":1,"trial_type":"survey-map","trial_index":4,"time_elapsed":198095,"internal_node_id":"0.0-4.0","task_version":"prescreen-v0.3","browser_interactions":0},{"responses":{"Q04":"2","Q05":"2","Q06":"3"},"rt":11088.5,"radio_events":[4319.40000000014,7557.100000000093,10109.40000000014],"key_events":[],"mouse_events":[4319.40000000014,7557.100000000093,10109.40000000014,11087.300000000047],"survey":"map","page":2,"trial_type":"survey-map","trial_index":5,"time_elapsed":209187,"internal_node_id":"0.0-5.0","task_version":"prescreen-v0.3","browser_interactions":0},{"responses":{"Q07":"2","Q08":"4","Q09":"3"},"rt":15154.300000000047,"radio_events":[5284.800000000047,9488.100000000093,13658.800000000047],"key_events":[],"mouse_events":[5284.800000000047,9488.100000000093,13658.800000000047,15153.200000000186],"survey":"map","page":3,"trial_type":"survey-map","trial_index":6,"time_elapsed":224346,"internal_node_id":"0.0-6.0","task_version":"prescreen-v0.3","browser_interactions":0},{"responses":{"Q10":"3","Q11":"3","Q12":"2","Q13":"2","Q16":"0","Q14":"2","Q15":"2"},"rt":35644.200000000186,"radio_events":[10808.100000000093,13317.100000000093,16686.600000000093,23647,28162,31565.5,34629.90000000014],"key_events":[],"mouse_events":[10808.100000000093,13317.100000000093,16686.600000000093,22475.600000000093,23647,28162,31565.5,34629.90000000014,35641.60000000009],"survey":"map","page":4,"trial_type":"survey-map","trial_index":7,"time_elapsed":259997,"internal_node_id":"0.0-7.0","task_version":"prescreen-v0.3","browser_interactions":0,"infrequency":0},{"view_history":[{"page_index":0,"viewing_time":1883.3000000000466},{"page_index":1,"viewing_time":3690.5}],"rt":5574.699999999953,"trial_type":"instructions","trial_index":8,"time_elapsed":265574,"internal_node_id":"0.0-8.0","task_version":"prescreen-v0.3"},{"responses":{"01":"No","02":"No","03":"No","04":"No","05":"No","06":"No"},"rt":28860.09999999986,"item_order":[0,1,2,3,4,5],"radio_events":[8036.09999999986,19327.09999999986,21724.59999999986,23251.09999999986,25295.300000000047,27727.199999999953],"checkbox_events":[],"key_events":[],"mouse_events":[0.09999999986030161,8036.09999999986,19327.09999999986,21724.59999999986,23251.09999999986,25295.300000000047,27727.199999999953,28856.40000000014],"honeypot":0,"survey":"mace","page":1,"trial_type":"survey-mace","trial_index":9,"time_elapsed":294444,"internal_node_id":"0.0-9.0","task_version":"prescreen-v0.3","browser_interactions":0},{"responses":{"01":"No","02":"No","03":"Yes","03_ages_2":"2","03_ages_3":"3","03_ages_4":"4","03_ages_5":"5","03_ages_6":"6","03_ages_7":"7","03_ages_8":"8","04":"Yes","04_ages_2":"2","04_ages_3":"3","04_ages_4":"4","04_ages_5":"5","04_ages_6":"6","04_ages_7":"7","04_ages_8":"8","05":"No","06":"No","07":"No","08":"No"},"rt":47621.700000000186,"item_order":[0,1,2,3,4,5,6,7],"radio_events":[2886.2000000001863,6828.300000000279,8934,31402.700000000186,41174.80000000028,43250.5,45553.60000000009,46626.10000000009],"checkbox_events":[13743.200000000186,15437.5,16479.600000000093,17448.30000000028,18667.200000000186,20538.80000000028,27715.600000000093,33176.40000000037,34171,35092.200000000186,35897.40000000037,36762.5,37556.5,38348.80000000028],"key_events":[],"mouse_events":[2886.2000000001863,6828.300000000279,8934,13743.200000000186,14575.200000000186,15437.5,16479.600000000093,17448.30000000028,18667.200000000186,20538.80000000028,27715.600000000093,31402.700000000186,33176.40000000037,34171,35092.200000000186,35897.40000000037,36762.5,37556.5,38348.80000000028,41174.80000000028,43250.5,45553.60000000009,46626.10000000009,47613.200000000186],"honeypot":0,"survey":"mace","page":2,"trial_type":"survey-mace","trial_index":10,"time_elapsed":342073,"internal_node_id":"0.0-10.0","task_version":"prescreen-v0.3","browser_interactions":0},{"responses":{"01":"Yes","01_ages_6":"6","01_ages_7":"7","01_ages_8":"8","01_ages_9":"9","01_ages_10":"10","01_ages_11":"11","02":"No","03":"No","04":"No"},"rt":23531.600000000093,"item_order":[0,1,2,3],"radio_events":[5828.399999999907,18188.899999999907,20529.69999999972,22231.799999999814],"checkbox_events":[9469.5,10319.899999999907,11049,12218.19999999972,13970,14867.399999999907],"key_events":[],"mouse_events":[5828.399999999907,8641.100000000093,9469.5,10319.899999999907,11049,12218.19999999972,13970,14867.399999999907,18188.899999999907,20529.69999999972,22231.799999999814,23529.299999999814],"honeypot":0,"survey":"mace","page":3,"trial_type":"survey-mace","trial_index":11,"time_elapsed":365608,"internal_node_id":"0.0-11.0","task_version":"prescreen-v0.3","browser_interactions":0},{"responses":{"01":"No","02":"No"},"rt":9213.5,"item_order":[0,1],"radio_events":[5609.199999999721,8241.299999999814],"checkbox_events":[],"key_events":[],"mouse_events":[5609.199999999721,8241.299999999814,9211.099999999627],"honeypot":0,"survey":"mace","page":4,"trial_type":"survey-mace","trial_index":12,"time_elapsed":374826,"internal_node_id":"0.0-12.0","task_version":"prescreen-v0.3","browser_interactions":0},{"responses":{"01":"No","02":"No","03":"No","04":"No","05":"No"},"rt":22532.700000000186,"item_order":[0,1,2,3,4],"radio_events":[10943.200000000186,13468.100000000093,16708.799999999814,19357.600000000093,21673.600000000093],"checkbox_events":[],"key_events":[],"mouse_events":[10943.200000000186,13468.100000000093,16708.799999999814,19357.600000000093,21673.600000000093,22529.700000000186],"honeypot":0,"survey":"mace","page":5,"trial_type":"survey-mace","trial_index":13,"time_elapsed":397366,"internal_node_id":"0.0-13.0","task_version":"prescreen-v0.3","browser_interactions":0},{"responses":{"01":"Yes","01_ages_8":"8","01_ages_9":"9","01_ages_10":"10","01_ages_11":"11","01_ages_12":"12","02":"Yes","02_ages_8":"8","02_ages_9":"9","02_ages_10":"10","02_ages_11":"11","02_ages_12":"12","02_ages_13":"13","03":"Yes","03_ages_13":"13","03_ages_14":"14","03_ages_15":"15","03_ages_16":"16","03_ages_17":"17","03_ages_18":"18","04":"Yes","04_ages_13":"13","04_ages_14":"14","04_ages_15":"15","04_ages_16":"16","04_ages_17":"17","04_ages_18":"18","05":"No"},"rt":49657.39999999991,"item_order":[0,1,2,3,4],"radio_events":[6368.799999999814,17707.299999999814,31065.69999999972,40562.19999999972,48713],"checkbox_events":[10169.799999999814,11052.5,11789.399999999907,12520.899999999907,13272.100000000093,21364.69999999972,22146.100000000093,23058.600000000093,25159.299999999814,26112.799999999814,26814.299999999814,33365.5,34277.799999999814,35054.5,35813.69999999972,36721.19999999972,37808.299999999814,42245.5,43287.799999999814,44060.39999999991,44709.60000000009,45735.799999999814,46449],"key_events":[],"mouse_events":[6368.799999999814,10169.799999999814,11052.5,11789.399999999907,12520.899999999907,13272.100000000093,17707.299999999814,21364.69999999972,22146.100000000093,23058.600000000093,25159.299999999814,26112.799999999814,26814.299999999814,31065.69999999972,33365.5,34277.799999999814,35054.5,35813.69999999972,36721.19999999972,37808.299999999814,40562.19999999972,42245.5,43287.799999999814,44060.39999999991,44709.60000000009,45735.799999999814,46449,48713,49651],"honeypot":0,"survey":"mace","page":6,"trial_type":"survey-mace","trial_index":14,"time_elapsed":447030,"internal_node_id":"0.0-14.0","task_version":"prescreen-v0.3","browser_interactions":0},{"responses":{"01":"No","02":"No","03":"No","04":"No","05":"No","06":"No","07":"No"},"rt":19391,"item_order":[0,1,2,3,4,5,6],"radio_events":[3573.7000000001863,5537.100000000093,7285.5,8643.600000000093,15764.200000000186,17371.200000000186,18580.899999999907],"checkbox_events":[],"key_events":[],"mouse_events":[3573.7000000001863,5537.100000000093,7285.5,8643.600000000093,15764.200000000186,17371.200000000186,18580.899999999907,19383.200000000186],"honeypot":0,"survey":"mace","page":7,"trial_type":"survey-mace","trial_index":15,"time_elapsed":466427,"internal_node_id":"0.0-15.0","task_version":"prescreen-v0.3","browser_interactions":0},{"responses":{"01":"No","02":"No","03":"No","04":"No"},"rt":21322.600000000093,"item_order":[0,1,2,3],"radio_events":[10673.200000000186,12941.399999999907,17625.700000000186,20499.399999999907],"checkbox_events":[],"key_events":[],"mouse_events":[10673.200000000186,12941.399999999907,17625.700000000186,20499.399999999907,21316.700000000186],"honeypot":0,"survey":"mace","page":8,"trial_type":"survey-mace","trial_index":16,"time_elapsed":487754,"internal_node_id":"0.0-16.0","task_version":"prescreen-v0.3","browser_interactions":0},{"responses":{"01":"Yes","01_ages_1":"1","01_ages_2":"2","01_ages_3":"3","01_ages_4":"4","01_ages_5":"5","01_ages_6":"6","01_ages_7":"7","01_ages_8":"8","01_ages_9":"9","01_ages_10":"10","01_ages_11":"11","01_ages_12":"12","01_ages_13":"13","01_ages_14":"14","01_ages_15":"15","01_ages_16":"16","01_ages_17":"17","01_ages_18":"18","02":"Yes","02_ages_1":"1","02_ages_2":"2","02_ages_3":"3","02_ages_4":"4","02_ages_5":"5","02_ages_6":"6","02_ages_7":"7","02_ages_8":"8","02_ages_9":"9","02_ages_10":"10","02_ages_11":"11","02_ages_12":"12","02_ages_13":"13","02_ages_14":"14","02_ages_15":"15","02_ages_16":"16","02_ages_17":"17","02_ages_18":"18","03":"Yes","03_ages_1":"1","03_ages_2":"2","03_ages_3":"3","03_ages_4":"4","03_ages_5":"5","03_ages_6":"6","03_ages_7":"7","03_ages_8":"8","03_ages_9":"9","03_ages_10":"10","03_ages_11":"11","03_ages_12":"12","03_ages_13":"13","03_ages_14":"14","03_ages_15":"15","03_ages_16":"16","03_ages_17":"17","03_ages_18":"18","04":"Yes","04_ages_1":"1","04_ages_2":"2","04_ages_3":"3","04_ages_4":"4","04_ages_5":"5","04_ages_6":"6","04_ages_7":"7","04_ages_8":"8","04_ages_9":"9","04_ages_10":"10","04_ages_11":"11","04_ages_12":"12","04_ages_13":"13","04_ages_14":"14","04_ages_15":"15","04_ages_16":"16","04_ages_17":"17","04_ages_18":"18"},"rt":87647.79999999981,"item_order":[0,1,2,3],"radio_events":[4127.5,23973.100000000093,43510.299999999814,70899.19999999972],"checkbox_events":[6543.699999999721,7956.299999999814,8739.69999999972,9477.100000000093,11107.600000000093,11860.5,13383.19999999972,14168.799999999814,14857.899999999907,15607.5,16304.399999999907,17034,18011.899999999907,18741.399999999907,19482.799999999814,20172.100000000093,20868.19999999972,21597.299999999814,25609,26573.299999999814,27268.19999999972,27925.100000000093,28698.600000000093,29699.600000000093,30629.69999999972,31657.5,32292.100000000093,32965.39999999991,33640.60000000009,34566.89999999991,35248,36089.799999999814,36854.19999999972,38586.5,39347.69999999972,40069,44875.39999999991,45596.89999999991,46263,47023.60000000009,47953.69999999972,48730.799999999814,49424.299999999814,50121.19999999972,50850.299999999814,51788.299999999814,52605.89999999991,53321.5,54211.89999999991,55045.60000000009,55830.799999999814,56479.89999999991,57380.69999999972,58094.5,73107.5,74140.29999999981,76002.19999999972,76771.8999999999,77428.1000000001,78214.29999999981,78895.79999999981,79640.79999999981,80382,81143.3999999999,81816.3999999999,82473.1000000001,83169.3999999999,83877.3999999999,84569.19999999972,85257,85923.29999999981,86604],"key_events":[],"mouse_events":[4127.5,6543.699999999721,7224.799999999814,7956.299999999814,8739.69999999972,9477.100000000093,11107.600000000093,11860.5,12589.69999999972,13383.19999999972,14168.799999999814,14857.899999999907,15607.5,16304.399999999907,17034,18011.899999999907,18741.399999999907,19482.799999999814,20172.100000000093,20868.19999999972,21597.299999999814,23973.100000000093,25609,26573.299999999814,27268.19999999972,27925.100000000093,28698.600000000093,29699.600000000093,30629.69999999972,31657.5,32292.100000000093,32965.39999999991,33640.60000000009,34566.89999999991,35248,36089.799999999814,36854.19999999972,37793.10000000009,38586.5,39347.69999999972,40069,43510.299999999814,44875.39999999991,45596.89999999991,46263,47023.60000000009,47953.69999999972,48730.799999999814,49424.299999999814,50121.19999999972,50850.299999999814,51788.299999999814,52605.89999999991,53321.5,54211.89999999991,55045.60000000009,55830.799999999814,56479.89999999991,57380.69999999972,58094.5,58640.39999999991,70899.19999999972,73107.5,74140.29999999981,74884.6000000001,76002.19999999972,76771.8999999999,77428.1000000001,78214.29999999981,78895.79999999981,79640.79999999981,80382,81143.3999999999,81816.3999999999,82473.1000000001,83169.3999999999,83877.3999999999,84569.19999999972,85257,85923.29999999981,86604,87645.6000000001],"honeypot":0,"survey":"mace","page":9,"trial_type":"survey-mace","trial_index":17,"time_elapsed":575406,"internal_node_id":"0.0-17.0","task_version":"prescreen-v0.3","browser_interactions":0},{"responses":{"01":"No","02":"No","03":"No","04":"No","05":"No","06":"Yes","06_ages_17":"17","07":"Yes","07_ages_1":"1","07_ages_2":"2","07_ages_3":"3","07_ages_4":"4","07_ages_5":"5","07_ages_6":"6","07_ages_7":"7","07_ages_8":"8","07_ages_9":"9","07_ages_10":"10","07_ages_11":"11","07_ages_12":"12","07_ages_13":"13","07_ages_14":"14","07_ages_15":"15","07_ages_16":"16","07_ages_17":"17","07_ages_18":"18","08":"Yes","08_ages_1":"1","08_ages_2":"2","08_ages_3":"3","08_ages_4":"4","08_ages_5":"5","08_ages_6":"6","08_ages_7":"7","08_ages_8":"8","08_ages_9":"9","08_ages_10":"10","08_ages_11":"11","08_ages_12":"12","08_ages_13":"13","08_ages_14":"14","08_ages_15":"15","08_ages_16":"16","08_ages_17":"17","08_ages_18":"18"},"rt":55719.299999999814,"item_order":[0,1,2,3,4,5,6,7],"radio_events":[3362.399999999907,5137.699999999721,6979.5999999996275,8102.699999999721,11430.69999999972,14657.099999999627,22324.899999999907,39505.799999999814],"checkbox_events":[16604.899999999907,24631.799999999814,25249.299999999814,25906.799999999814,26558.399999999907,27785.69999999972,28451.599999999627,29236.69999999972,29869.5,30478.899999999907,31163.099999999627,32101.19999999972,32758.899999999907,33424.69999999972,34169.09999999963,34934.799999999814,35615.89999999991,36745.69999999972,37610,41254.59999999963,42015.89999999991,42688.5,43378.299999999814,44231.89999999991,45001,45698.39999999991,46460.09999999963,47180.69999999972,47856.09999999963,48587.799999999814,49285,50189.799999999814,51079.39999999991,52013.09999999963,52846.59999999963,53654.299999999814,54272.69999999972],"key_events":[],"mouse_events":[3362.399999999907,5137.699999999721,6979.5999999996275,8102.699999999721,11430.69999999972,14657.099999999627,16604.899999999907,22324.899999999907,24631.799999999814,25249.299999999814,25906.799999999814,26558.399999999907,27785.69999999972,28451.599999999627,29236.69999999972,29869.5,30478.899999999907,31163.099999999627,32101.19999999972,32758.899999999907,33424.69999999972,34169.09999999963,34934.799999999814,35615.89999999991,36745.69999999972,37610,39505.799999999814,41254.59999999963,42015.89999999991,42688.5,43378.299999999814,44231.89999999991,45001,45698.39999999991,46460.09999999963,47180.69999999972,47856.09999999963,48587.799999999814,49285,50189.799999999814,51079.39999999991,52013.09999999963,52846.59999999963,53654.299999999814,54272.69999999972,55708.39999999991],"honeypot":0,"survey":"mace","page":10,"trial_type":"survey-mace","trial_index":18,"time_elapsed":631134,"internal_node_id":"0.0-18.0","task_version":"prescreen-v0.3","browser_interactions":0,"instructed":0},{"rt":3871.5,"trial_type":"mental-health-alert","trial_index":19,"time_elapsed":635008,"internal_node_id":"0.0-19.0","task_version":"prescreen-v0.3","interactions":"[]"}]