[{"view_history":[{"page_index":0,"viewing_time":49299.59999996424},{"page_index":1,"viewing_time":1201.9000000357628},{"page_index":2,"viewing_time":1165.5999999642372},{"page_index":3,"viewing_time":1668.199999988079}],"rt":53336.89999997616,"trial_type":"instructions","trial_index":0,"time_elapsed":53376,"internal_node_id":"0.0-0.0","task_version":"prescreen-v0.3"},{"rt":33757.39999997616,"responses":{"age":"23","gender-categorical":"Female","gender-free-response":"","ethnicity":"Not Hispanic or Latino","race":["Asian","White"],"education":"Bachelor degree"},"trial_type":"survey-demo","trial_index":1,"time_elapsed":87142,"internal_node_id":"0.0-1.0","task_version":"prescreen-v0.3"},{"responses":{"Q06":"2","Q13":"1","Q08":"1","Q09":"1","Q03":"2","Q10":"1","Q05":"2","Q18":"1","Q12":"2","Q17":"1","Q15":"2","Q02":"1","Q14":"1","Q16":"1","Q01":"0","Q04":"2","Q07":"2","Q21":"2","Q20":"0","Q11":"1","Q19":"1"},"rt":240383.60000002384,"item_order":[5,12,7,8,2,9,4,17,11,16,14,1,13,15,0,3,6,20,19,10,18],"radio_events":[33161.60000002384,33584,35826.40000003576,40063.69999998808,54472.69999998808,56882.5,61287.5,68525.5,81978.30000001192,85790.60000002384,88848,123192.19999998808,127418.40000003576,130388.10000002384,134442,139020.30000001192,142131.40000003576,200012.5,226732.80000001192,230614.19999998808,236577.60000002384,239561.80000001192],"key_events":[],"mouse_events":[33161.60000002384,33584,35826.40000003576,40063.69999998808,54472.69999998808,56882.5,61287.5,68525.5,81978.30000001192,85790.60000002384,88848,123192.19999998808,127418.40000003576,130388.10000002384,134442,139020.30000001192,142131.40000003576,200012.5,226732.80000001192,228957.19999998808,230614.19999998808,236577.60000002384,239561.80000001192,240380],"straightlining":0.5238095238095238,"zigzagging":0.55,"honeypot":0,"survey":"sns","trial_type":"survey-template","trial_index":2,"time_elapsed":327537,"internal_node_id":"0.0-2.0","task_version":"prescreen-v0.3","browser_interactions":0,"infrequency":0.5},{"responses":{"Q01":"2","Q09":"2","Q10":"2","Q03":"3","Q05":"2","Q06":"2","Q07":"2","Q04":"3","Q13":"0","Q08":"2","Q02":"1","Q12":"3","Q11":"2"},"rt":61006.69999998808,"item_order":[0,8,9,2,4,5,6,3,12,7,1,11,10],"radio_events":[6741.5,9059,10967.900000035763,14091.800000011921,26085,28014,30735.100000023842,33357.10000002384,35212.30000001192,37945.40000003576,44360.69999998808,57813,59989],"key_events":[],"mouse_events":[6741.5,9059,10967.900000035763,14091.800000011921,26085,28014,30735.100000023842,33357.10000002384,35212.30000001192,37945.40000003576,44360.69999998808,57813,59989,61004.69999998808],"straightlining":0.6153846153846154,"zigzagging":0.5,"honeypot":0,"survey":"bisbas","trial_type":"survey-template","trial_index":3,"time_elapsed":388550,"internal_node_id":"0.0-3.0","task_version":"prescreen-v0.3","browser_interactions":0,"infrequency":0},{"responses":{"Q01":"2","Q02":"3","Q03":"4"},"rt":27695.80000001192,"radio_events":[20888.400000035763,23686.80000001192,26739.600000023842],"key_events":[],"mouse_events":[20888.400000035763,23686.80000001192,26739.600000023842,27694.200000047684],"survey":"map","page":1,"trial_type":"survey-map","trial_index":4,"time_elapsed":416251,"internal_node_id":"0.0-4.0","task_version":"prescreen-v0.3","browser_interactions":0},{"responses":{"Q04":"3","Q05":"3","Q06":"3"},"rt":16050.199999988079,"radio_events":[5467.399999976158,8896.099999964237,15410.599999964237],"key_events":[],"mouse_events":[5467.399999976158,8896.099999964237,15410.599999964237,16049.199999988079],"survey":"map","page":2,"trial_type":"survey-map","trial_index":5,"time_elapsed":432305,"internal_node_id":"0.0-5.0","task_version":"prescreen-v0.3","browser_interactions":0},{"responses":{"Q07":"4","Q08":"4","Q09":"2"},"rt":12527.600000023842,"radio_events":[4641,9328.800000011921,11605.600000023842],"key_events":[],"mouse_events":[4641,9328.800000011921,11605.600000023842,12526.699999988079],"survey":"map","page":3,"trial_type":"survey-map","trial_index":6,"time_elapsed":444837,"internal_node_id":"0.0-6.0","task_version":"prescreen-v0.3","browser_interactions":0},{"responses":{"Q10":"2","Q11":"1","Q12":"2","Q13":"2","Q16":"0","Q14":"3","Q15":"2"},"rt":32264.900000035763,"radio_events":[15636.400000035763,17857.19999998808,20798.69999998808,23473.900000035763,25892.5,29328.900000035763,31337.600000023842],"key_events":[],"mouse_events":[15636.400000035763,17857.19999998808,20798.69999998808,23473.900000035763,25892.5,29328.900000035763,31337.600000023842,32263.100000023842],"survey":"map","page":4,"trial_type":"survey-map","trial_index":7,"time_elapsed":477107,"internal_node_id":"0.0-7.0","task_version":"prescreen-v0.3","browser_interactions":0,"infrequency":0},{"view_history":[{"page_index":0,"viewing_time":2349.400000035763},{"page_index":1,"viewing_time":2082.599999964237}],"rt":4433.100000023842,"trial_type":"instructions","trial_index":8,"time_elapsed":481543,"internal_node_id":"0.0-8.0","task_version":"prescreen-v0.3"},{"responses":{"01":"No","02":"No","03":"No","04":"No","05":"No","06":"No"},"rt":51848.69999998808,"item_order":[0,1,2,3,4,5],"radio_events":[27971.400000035763,40812.90000003576,44539.30000001192,45680.5,49332.10000002384,50429.60000002384],"checkbox_events":[],"key_events":[],"mouse_events":[0.30000001192092896,27971.400000035763,40812.90000003576,43119.69999998808,44539.30000001192,45680.5,49332.10000002384,50429.60000002384,51843.60000002384],"honeypot":0,"survey":"mace","page":1,"trial_type":"survey-mace","trial_index":9,"time_elapsed":533405,"internal_node_id":"0.0-9.0","task_version":"prescreen-v0.3","browser_interactions":0},{"responses":{"01":"No","02":"No","03":"No","04":"No","05":"No","06":"No","07":"No","08":"No"},"rt":25158.80000001192,"item_order":[0,1,2,3,4,5,6,7],"radio_events":[3837.599999964237,13731.300000011921,15224.5,16894.69999998808,19786,21317,22629.5,24514.5],"checkbox_events":[],"key_events":[],"mouse_events":[2895.199999988079,3837.599999964237,13731.300000011921,15224.5,16894.69999998808,19786,21317,22629.5,23567.19999998808,24514.5,25152.399999976158],"honeypot":0,"survey":"mace","page":2,"trial_type":"survey-mace","trial_index":10,"time_elapsed":558573,"internal_node_id":"0.0-10.0","task_version":"prescreen-v0.3","browser_interactions":0},{"responses":{"01":"No","02":"No","03":"No","04":"No"},"rt":8010.699999988079,"item_order":[0,1,2,3],"radio_events":[3243.300000011921,4240.699999988079,5697.099999964237,6830.599999964237],"checkbox_events":[],"key_events":[],"mouse_events":[3243.300000011921,4240.699999988079,5697.099999964237,6830.599999964237,8007],"honeypot":0,"survey":"mace","page":3,"trial_type":"survey-mace","trial_index":11,"time_elapsed":566590,"internal_node_id":"0.0-11.0","task_version":"prescreen-v0.3","browser_interactions":0},{"responses":{"01":"No","02":"No"},"rt":7455.599999964237,"item_order":[0,1],"radio_events":[3192.2999999523163,6606.899999976158],"checkbox_events":[],"key_events":[],"mouse_events":[3192.2999999523163,6606.899999976158,7453.799999952316],"honeypot":0,"survey":"mace","page":4,"trial_type":"survey-mace","trial_index":12,"time_elapsed":574050,"internal_node_id":"0.0-12.0","task_version":"prescreen-v0.3","browser_interactions":0},{"responses":{"01":"No","02":"No","03":"No","04":"No","05":"No"},"rt":12724,"item_order":[0,1,2,3,4],"radio_events":[3694.099999964237,7901.799999952316,9254.799999952316,10710.799999952316,11674.299999952316],"checkbox_events":[],"key_events":[],"mouse_events":[3694.099999964237,6968.399999976158,7901.799999952316,9254.799999952316,10710.799999952316,11674.299999952316,12719.899999976158],"honeypot":0,"survey":"mace","page":5,"trial_type":"survey-mace","trial_index":13,"time_elapsed":586780,"internal_node_id":"0.0-13.0","task_version":"prescreen-v0.3","browser_interactions":0},{"responses":{"01":"Yes","01_ages_5":"5","01_ages_6":"6","01_ages_7":"7","01_ages_8":"8","01_ages_9":"9","01_ages_10":"10","02":"Yes","02_ages_5":"5","02_ages_6":"6","02_ages_7":"7","02_ages_8":"8","02_ages_9":"9","02_ages_10":"10","03":"Yes","03_ages_9":"9","03_ages_10":"10","03_ages_11":"11","03_ages_12":"12","03_ages_13":"13","04":"No","05":"No"},"rt":98412.69999998808,"item_order":[0,1,2,3,4],"radio_events":[40752.799999952316,50861.299999952316,87131.79999995232,95883.89999997616,97613.09999996424],"checkbox_events":[45323.39999997616,45948,46592.59999996424,47339.39999997616,48020.5,48838.89999997616,52167.39999997616,52806.09999996424,53379.39999997616,54054.299999952316,56407.799999952316,68160.09999996424,88716.5,89543.09999996424,90223.29999995232,90767.79999995232,91529.5,92132.29999995232,93308.19999998808],"key_events":[],"mouse_events":[40752.799999952316,45323.39999997616,45948,46592.59999996424,47339.39999997616,48020.5,48838.89999997616,50861.299999952316,52167.39999997616,52806.09999996424,53379.39999997616,54054.299999952316,56407.799999952316,67083.09999996424,68160.09999996424,87131.79999995232,88716.5,89543.09999996424,90223.29999995232,90767.79999995232,91529.5,92132.29999995232,93308.19999998808,95883.89999997616,97613.09999996424,98409],"honeypot":0,"survey":"mace","page":6,"trial_type":"survey-mace","trial_index":14,"time_elapsed":685199,"internal_node_id":"0.0-14.0","task_version":"prescreen-v0.3","browser_interactions":0},{"responses":{"01":"No","02":"No","03":"No","04":"No","05":"No","06":"No","07":"Yes","07_ages_18":"18"},"rt":42368.60000002384,"item_order":[0,1,2,3,4,5,6],"radio_events":[3946.900000035763,5412.700000047684,6804.800000011921,8389.400000035763,9659.5,16661.200000047684,24387.5],"checkbox_events":[19810.30000001192],"key_events":[],"mouse_events":[3946.900000035763,5412.700000047684,6804.800000011921,8389.400000035763,9659.5,16661.200000047684,19810.30000001192,23348.80000001192,24387.5,42363.30000001192],"honeypot":0,"survey":"mace","page":7,"trial_type":"survey-mace","trial_index":15,"time_elapsed":727575,"internal_node_id":"0.0-15.0","task_version":"prescreen-v0.3","browser_interactions":0},{"responses":{"01":"Yes","01_ages_16":"16","01_ages_17":"17","01_ages_18":"18","02":"Yes","02_ages_5":"5","02_ages_6":"6","02_ages_7":"7","02_ages_8":"8","02_ages_9":"9","02_ages_10":"10","02_ages_11":"11","02_ages_12":"12","02_ages_13":"13","02_ages_14":"14","02_ages_15":"15","02_ages_16":"16","02_ages_17":"17","02_ages_18":"18","03":"Yes","03_ages_7":"7","03_ages_8":"8","03_ages_9":"9","03_ages_10":"10","03_ages_11":"11","03_ages_12":"12","03_ages_13":"13","03_ages_14":"14","04":"Yes","04_ages_7":"7","04_ages_8":"8","04_ages_9":"9","04_ages_10":"10","04_ages_11":"11","04_ages_12":"12","04_ages_13":"13","04_ages_14":"14"},"rt":433898.8000000119,"item_order":[0,1,2,3],"radio_events":[7435.199999988079,20643.899999976158,66824.30000001192,402678.09999996424],"checkbox_events":[12988.099999964237,13799.099999964237,14652.800000011921,24044.19999998808,24762.19999998808,25314.599999964237,56026.89999997616,56600.69999998808,57203.59999996424,57806.19999998808,58482.59999996424,59068.39999997616,59886.5,60396.19999998808,61165.30000001192,62599.30000001192,63633.09999996424,70002.80000001192,70669.09999996424,71207.89999997616,71717.59999996424,72276.39999997616,73116.59999996424,81520.19999998808,82186.19999998808,404063.3000000119,404571.1999999881,405130.89999997616,425802.6999999881,426369.1999999881,429675.8000000119,430739.3000000119,431427.39999997616],"key_events":[],"mouse_events":[7435.199999988079,12988.099999964237,13799.099999964237,14652.800000011921,20643.899999976158,24044.19999998808,24762.19999998808,25314.599999964237,56026.89999997616,56600.69999998808,57203.59999996424,57806.19999998808,58482.59999996424,59068.39999997616,59886.5,60396.19999998808,61165.30000001192,62599.30000001192,63633.09999996424,66824.30000001192,70002.80000001192,70669.09999996424,71207.89999997616,71717.59999996424,72276.39999997616,73116.59999996424,81520.19999998808,82186.19999998808,402678.09999996424,404063.3000000119,404571.1999999881,405130.89999997616,425802.6999999881,426369.1999999881,429675.8000000119,430739.3000000119,431427.39999997616,433895.5],"honeypot":0,"survey":"mace","page":8,"trial_type":"survey-mace","trial_index":16,"time_elapsed":1161480,"internal_node_id":"0.0-16.0","task_version":"prescreen-v0.3","browser_interactions":2},{"responses":{"01":"Yes","01_ages_3":"3","01_ages_4":"4","01_ages_5":"5","01_ages_6":"6","01_ages_7":"7","02":"Yes","02_ages_7":"7","02_ages_8":"8","02_ages_9":"9","02_ages_10":"10","02_ages_11":"11","02_ages_12":"12","03":"Yes","03_ages_1":"1","03_ages_2":"2","03_ages_3":"3","03_ages_4":"4","03_ages_5":"5","03_ages_6":"6","03_ages_7":"7","03_ages_8":"8","03_ages_9":"9","03_ages_10":"10","03_ages_11":"11","03_ages_12":"12","03_ages_13":"13","03_ages_14":"14","03_ages_15":"15","03_ages_16":"16","03_ages_17":"17","03_ages_18":"18","04":"Yes","04_ages_1":"1","04_ages_2":"2","04_ages_3":"3","04_ages_4":"4","04_ages_5":"5","04_ages_6":"6","04_ages_7":"7","04_ages_8":"8","04_ages_9":"9","04_ages_10":"10","04_ages_11":"11","04_ages_12":"12","04_ages_13":"13","04_ages_14":"14","04_ages_15":"15","04_ages_16":"16","04_ages_17":"17","04_ages_18":"18"},"rt":560943.4000000358,"item_order":[0,1,2,3],"radio_events":[6726.900000035763,482176,489831.90000003576,544949.7000000477],"checkbox_events":[12250.100000023842,13497.400000035763,14214.600000023842,15842.700000047684,16517.5,484250.2000000477,484938.3000000119,485619.8000000119,486179.7000000477,486724.8000000119,487587.90000003576,490907.60000002384,491560.3000000119,492334.8000000119,493906,495240.3000000119,496006.90000003576,534729.2000000477,535304,536443.8000000119,536931,537462.8000000119,538466.4000000358,538954,539506.6000000238,540051.4000000358,540619.6000000238,541163.3000000119,541844.5,546478,546981,547930.7000000477,548682.9000000358,549748.7000000477,550373.6000000238,551275.2000000477,552122.7000000477,552790.4000000358,553479.5,554236.5,555194.8000000119,556096,556890.9000000358,557789.8000000119,558564.5,559391,560110.2000000477],"key_events":[],"mouse_events":[6726.900000035763,12250.100000023842,12916.700000047684,13497.400000035763,14214.600000023842,15132.600000023842,15842.700000047684,16517.5,482176,484250.2000000477,484938.3000000119,485619.8000000119,486179.7000000477,486724.8000000119,487587.90000003576,489831.90000003576,490907.60000002384,491560.3000000119,492334.8000000119,493906,494608.90000003576,495240.3000000119,496006.90000003576,534729.2000000477,535304,535827,536443.8000000119,536931,537462.8000000119,537956.9000000358,538466.4000000358,538954,539506.6000000238,540051.4000000358,540619.6000000238,541163.3000000119,541844.5,544949.7000000477,546478,546981,547930.7000000477,548682.9000000358,549748.7000000477,550373.6000000238,551275.2000000477,552122.7000000477,552790.4000000358,553479.5,554236.5,555194.8000000119,556096,556890.9000000358,557789.8000000119,558564.5,559391,560110.2000000477,560940.1000000238],"honeypot":0,"survey":"mace","page":9,"trial_type":"survey-mace","trial_index":17,"time_elapsed":1722429,"internal_node_id":"0.0-17.0","task_version":"prescreen-v0.3","browser_interactions":0},{"responses":{"01":"No","02":"No","03":"Yes","03_ages_18":"18","04":"No","05":"No","06":"Yes","06_ages_17":"17","07":"Yes","07_ages_1":"1","07_ages_2":"2","07_ages_3":"3","07_ages_4":"4","07_ages_5":"5","07_ages_6":"6","07_ages_7":"7","07_ages_8":"8","07_ages_9":"9","07_ages_10":"10","07_ages_11":"11","07_ages_12":"12","07_ages_13":"13","07_ages_14":"14","07_ages_15":"15","07_ages_16":"16","07_ages_17":"17","07_ages_18":"18","08":"Yes","08_ages_1":"1","08_ages_2":"2","08_ages_3":"3","08_ages_4":"4","08_ages_5":"5","08_ages_6":"6","08_ages_7":"7","08_ages_8":"8","08_ages_9":"9","08_ages_10":"10","08_ages_11":"11","08_ages_12":"12","08_ages_13":"13","08_ages_14":"14","08_ages_15":"15","08_ages_16":"16","08_ages_17":"17","08_ages_18":"18"},"rt":55841.90000003576,"item_order":[0,1,2,3,4,5,6,7],"radio_events":[6102.600000023842,8093.600000023842,11681.600000023842,17315.400000035763,19541.5,23469.80000001192,26626.5,41466.10000002384],"checkbox_events":[13930.100000023842,24731.80000001192,29093.80000001192,30231.900000035763,31045.900000035763,31810.600000023842,32366.80000001192,32807.5,33306.80000001192,33661.40000003576,34065.700000047684,34414.40000003576,34846.10000002384,35324.700000047684,35713.40000003576,36114.10000002384,36502.60000002384,36857.80000001192,37282.60000002384,37604.30000001192,45482.700000047684,45876.5,46781.80000001192,47791.200000047684,48249.60000002384,48719,49118.700000047684,49509.40000003576,49891.200000047684,50317.30000001192,50729.10000002384,51128.90000003576,51496,51889.30000001192,52295.90000003576,52755.200000047684,53106.5,53455.30000001192],"key_events":[],"mouse_events":[6102.600000023842,8093.600000023842,11681.600000023842,13930.100000023842,17315.400000035763,19541.5,22642.700000047684,23469.80000001192,24731.80000001192,26626.5,29093.80000001192,30231.900000035763,31045.900000035763,31774.900000035763,31810.600000023842,32366.80000001192,32807.5,33306.80000001192,33661.40000003576,34065.700000047684,34414.40000003576,34846.10000002384,35324.700000047684,35713.40000003576,36114.10000002384,36502.60000002384,36857.80000001192,37282.60000002384,37604.30000001192,41466.10000002384,45482.700000047684,45876.5,46781.80000001192,47791.200000047684,48249.60000002384,48719,49118.700000047684,49509.40000003576,49891.200000047684,50317.30000001192,50729.10000002384,51128.90000003576,51496,51889.30000001192,52295.90000003576,52755.200000047684,53106.5,53455.30000001192,55828],"honeypot":0,"survey":"mace","page":10,"trial_type":"survey-mace","trial_index":18,"time_elapsed":1778283,"internal_node_id":"0.0-18.0","task_version":"prescreen-v0.3","browser_interactions":0,"instructed":0},{"rt":2715.199999988079,"trial_type":"mental-health-alert","trial_index":19,"time_elapsed":1781003,"internal_node_id":"0.0-19.0","task_version":"prescreen-v0.3","interactions":"[{\"event\":\"blur\",\"trial\":16,\"time\":1111155},{\"event\":\"focus\",\"trial\":16,\"time\":1127639}]"}]