[{"view_history":[{"page_index":0,"viewing_time":8657.90000000596},{"page_index":1,"viewing_time":9155.800000011921},{"page_index":2,"viewing_time":7493.799999982119},{"page_index":3,"viewing_time":1170}],"rt":26478.20000001788,"trial_type":"instructions","trial_index":0,"time_elapsed":26494,"internal_node_id":"0.0-0.0","task_version":"prescreen-v0.3"},{"rt":22305.5,"responses":{"age":"34","gender-categorical":"Female","gender-free-response":"","ethnicity":"Not Hispanic or Latino","race":["Black or African American"],"education":"Some college"},"trial_type":"survey-demo","trial_index":1,"time_elapsed":48804,"internal_node_id":"0.0-1.0","task_version":"prescreen-v0.3"},{"responses":{"Q02":"0","Q11":"1","Q12":"1","Q17":"0","Q14":"2","Q21":"3","Q15":"3","Q10":"1","Q18":"0","Q08":"3","Q01":"0","Q20":"0","Q13":"3","Q03":"0","Q06":"0","Q07":"0","Q09":"1","Q05":"0","Q16":"2","Q19":"0","Q04":"0"},"rt":203610.29999998212,"item_order":[1,10,11,16,13,20,14,9,17,7,0,19,12,2,5,6,8,4,15,18,3],"radio_events":[18523.19999998808,26631.40000000596,34615,41531.29999998212,50607.19999998808,60251.19999998808,61343.09999999404,67449.09999999404,80819.09999999404,91009,99165,113977,119404.90000000596,127566.79999998212,135666.90000000596,142834.90000000596,150624.79999998212,159092.69999998808,168504.79999998212,178126.79999998212,186174.69999998808,194314.69999998808,201886.79999998212],"key_events":[],"mouse_events":[16885.5,18141.09999999404,18523.19999998808,26631.40000000596,34615,41531.29999998212,42857.09999999404,50607.19999998808,59225.19999998808,60251.19999998808,61343.09999999404,67449.09999999404,79611.19999998808,80819.09999999404,89411,90385,91009,99165,113977,118889.29999998212,119404.90000000596,127566.79999998212,135666.90000000596,142834.90000000596,150624.79999998212,159092.69999998808,168504.79999998212,177690.90000000596,178126.79999998212,186174.69999998808,194314.69999998808,201886.79999998212,203608.59999999404],"straightlining":0.5238095238095238,"zigzagging":0.5,"honeypot":0,"survey":"sns","trial_type":"survey-template","trial_index":2,"time_elapsed":252420,"internal_node_id":"0.0-2.0","task_version":"prescreen-v0.3","browser_interactions":0,"infrequency":0},{"responses":{"Q08":"3","Q03":"2","Q01":"3","Q13":"0","Q07":"3","Q06":"3","Q05":"3","Q02":"1","Q09":"2","Q11":"3","Q12":"2","Q10":"2","Q04":"3"},"rt":109244.69999998808,"item_order":[7,2,0,12,6,5,4,1,8,10,11,9,3],"radio_events":[14122,34406,40316,46577.90000000596,55116.09999999404,60645.90000000596,64568,73517.80000001192,80729.80000001192,87201.90000000596,94601.80000001192,102093.80000001192,108681.80000001192],"key_events":[],"mouse_events":[14122,20872,34406,40316,45424.09999999404,46577.90000000596,54149.90000000596,55116.09999999404,60645.90000000596,63928.09999999404,64568,73517.80000001192,80729.80000001192,87201.90000000596,93781.90000000596,94601.80000001192,102093.80000001192,108175.69999998808,108681.80000001192,109243.80000001192],"straightlining":0.5384615384615384,"zigzagging":0.6666666666666666,"honeypot":0,"survey":"bisbas","trial_type":"survey-template","trial_index":3,"time_elapsed":361668,"internal_node_id":"0.0-3.0","task_version":"prescreen-v0.3","browser_interactions":2,"infrequency":0},{"responses":{"Q01":"4","Q02":"4","Q03":"3"},"rt":34131.89999997616,"radio_events":[16575.69999998808,23777.5,33305.5],"key_events":[],"mouse_events":[16575.69999998808,23777.5,33305.5,34131.39999997616],"survey":"map","page":1,"trial_type":"survey-map","trial_index":4,"time_elapsed":395803,"internal_node_id":"0.0-4.0","task_version":"prescreen-v0.3","browser_interactions":0},{"responses":{"Q04":"2","Q05":"3","Q06":"2"},"rt":36577.69999998808,"radio_events":[11557.199999988079,24913.09999999404,35891.19999998808],"key_events":[],"mouse_events":[11557.199999988079,24913.09999999404,35329.09999999404,35891.19999998808,36577.19999998808],"survey":"map","page":2,"trial_type":"survey-map","trial_index":5,"time_elapsed":432383,"internal_node_id":"0.0-5.0","task_version":"prescreen-v0.3","browser_interactions":0},{"responses":{"Q07":"4","Q08":"4","Q09":"4"},"rt":30136.09999999404,"radio_events":[11315.699999988079,22425.69999998808,29151.69999998808],"key_events":[],"mouse_events":[11315.699999988079,20965.79999998212,22425.69999998808,29151.69999998808,30135.59999999404],"survey":"map","page":3,"trial_type":"survey-map","trial_index":6,"time_elapsed":462521,"internal_node_id":"0.0-6.0","task_version":"prescreen-v0.3","browser_interactions":0},{"responses":{"Q10":"4","Q11":"4","Q12":"2","Q13":"0","Q16":"0","Q14":"4","Q15":"1"},"rt":69395.90000000596,"radio_events":[9561.40000000596,15573.300000011921,25585.30000001192,30769.20000001788,43713.30000001192,52537.20000001788,60247.20000001788,68511.20000001788],"key_events":[],"mouse_events":[9561.40000000596,15573.300000011921,25585.30000001192,30379.600000023842,30769.20000001788,43127.30000001192,43713.30000001192,52537.20000001788,60247.20000001788,68511.20000001788,69395.10000002384],"survey":"map","page":4,"trial_type":"survey-map","trial_index":7,"time_elapsed":531920,"internal_node_id":"0.0-7.0","task_version":"prescreen-v0.3","browser_interactions":0,"infrequency":0},{"view_history":[{"page_index":0,"viewing_time":4063.300000011921},{"page_index":1,"viewing_time":3984}],"rt":8048.100000023842,"trial_type":"instructions","trial_index":8,"time_elapsed":539969,"internal_node_id":"0.0-8.0","task_version":"prescreen-v0.3"},{"responses":{"01":"No","02":"No","03":"Yes","03_ages_4":"4","03_ages_5":"5","03_ages_6":"6","03_ages_7":"7","03_ages_8":"8","03_ages_9":"9","03_ages_10":"10","03_ages_11":"11","03_ages_12":"12","03_ages_13":"13","03_ages_14":"14","03_ages_15":"15","03_ages_16":"16","04":"No","05":"No","06":"No"},"rt":68239.79999998212,"item_order":[0,1,2,3,4,5],"radio_events":[20703.899999976158,30863.59999999404,35003.59999999404,56865.5,61735.59999999404,67413.5],"checkbox_events":[42777.69999998808,43641.69999998808,44093.59999999404,44749.69999998808,45209.59999999404,45629.5,46035.69999998808,46463.5,46829.59999999404,48139.59999999404,49387.59999999404,50431.59999999404,52037.5],"key_events":[],"mouse_events":[0,20703.899999976158,30863.59999999404,35003.59999999404,42301.89999997616,42777.69999998808,43641.69999998808,44093.59999999404,44749.69999998808,45209.59999999404,45629.5,46035.69999998808,46463.5,46829.59999999404,47243.39999997616,48139.59999999404,48881.5,49387.59999999404,50431.59999999404,52037.5,56865.5,61735.59999999404,67413.5,68237.59999999404],"honeypot":0,"survey":"mace","page":1,"trial_type":"survey-mace","trial_index":9,"time_elapsed":608216,"internal_node_id":"0.0-9.0","task_version":"prescreen-v0.3","browser_interactions":0},{"responses":{"01":"No","02":"No","03":"Yes","03_ages_7":"7","03_ages_17":"17","04":"No","05":"No","06":"No","07":"No","08":"No"},"rt":49844.19999998808,"item_order":[0,1,2,3,4,5,6,7],"radio_events":[5543.399999976158,9441.59999999404,12685.5,36743.5,40415.5,43885.39999997616,45935.39999997616,48647.5],"checkbox_events":[15443.5,16059.59999999404,17377.399999976158,18087.5,22515.69999998808,27083.5],"key_events":[],"mouse_events":[5543.399999976158,9441.59999999404,12685.5,14765.699999988079,15139.299999982119,15443.5,16059.59999999404,16551.29999998212,17377.399999976158,18087.5,22515.69999998808,27083.5,36743.5,40415.5,43885.39999997616,45935.39999997616,48647.5,49841.39999997616],"honeypot":0,"survey":"mace","page":2,"trial_type":"survey-mace","trial_index":10,"time_elapsed":658065,"internal_node_id":"0.0-10.0","task_version":"prescreen-v0.3","browser_interactions":0},{"responses":{"01":"No","02":"No","03":"No","04":"No"},"rt":16498.79999998212,"item_order":[0,1,2,3],"radio_events":[5801.4000000059605,8819.299999982119,11695.199999988079,14541.299999982119],"checkbox_events":[],"key_events":[],"mouse_events":[5801.4000000059605,8281.199999988079,8819.299999982119,11157.09999999404,11695.199999988079,13121.199999988079,14541.299999982119,16497.29999998212],"honeypot":0,"survey":"mace","page":3,"trial_type":"survey-mace","trial_index":11,"time_elapsed":674566,"internal_node_id":"0.0-11.0","task_version":"prescreen-v0.3","browser_interactions":0},{"responses":{"01":"No","02":"No"},"rt":12510.800000011921,"item_order":[0,1],"radio_events":[8596,10576],"checkbox_events":[],"key_events":[],"mouse_events":[8596,10576,12510],"honeypot":0,"survey":"mace","page":4,"trial_type":"survey-mace","trial_index":12,"time_elapsed":687079,"internal_node_id":"0.0-12.0","task_version":"prescreen-v0.3","browser_interactions":0},{"responses":{"01":"Yes","01_ages_8":"8","02":"No","03":"No","04":"No","05":"No"},"rt":38272.5,"item_order":[0,1,2,3,4],"radio_events":[9326.699999988079,21660.69999998808,27220.79999998212,32024.69999998808,37092.79999998212],"checkbox_events":[15392.799999982119],"key_events":[],"mouse_events":[9326.699999988079,13031.40000000596,14916.699999988079,15392.799999982119,21660.69999998808,26598.59999999404,27220.79999998212,32024.69999998808,37092.79999998212,38270.79999998212],"honeypot":0,"survey":"mace","page":5,"trial_type":"survey-mace","trial_index":13,"time_elapsed":725355,"internal_node_id":"0.0-13.0","task_version":"prescreen-v0.3","browser_interactions":0},{"responses":{"01":"Yes","01_ages_6":"6","01_ages_11":"11","01_ages_14":"14","01_ages_15":"15","01_ages_16":"16","02":"Yes","02_ages_13":"13","02_ages_14":"14","03":"Yes","03_ages_14":"14","03_ages_15":"15","04":"Yes","04_ages_13":"13","04_ages_14":"14","04_ages_15":"15","05":"Yes","05_ages_12":"12","05_ages_13":"13","05_ages_14":"14"},"rt":81436.09999999404,"item_order":[0,1,2,3,4],"radio_events":[14652.09999999404,30838.19999998808,45082,52294.09999999404,72897.89999997616],"checkbox_events":[17232.29999998212,17716.09999999404,18994.399999976158,20484.29999998212,20896.29999998212,33676.19999998808,35048.19999998808,37152.09999999404,37668.19999998808,47054.09999999404,47444,60098,61446.09999999404,62194,77616,78923.89999997616,80694],"key_events":[],"mouse_events":[14652.09999999404,17232.29999998212,17716.09999999404,18136,18994.399999976158,19588,20196.399999976158,20484.29999998212,20896.29999998212,30838.19999998808,33676.19999998808,35048.19999998808,35890,36933.89999997616,37152.09999999404,37668.19999998808,45082,47054.09999999404,47444,51866,52294.09999999404,58484.29999998212,60098,61446.09999999404,62194,72397.89999997616,72897.89999997616,77616,78923.89999997616,80320,80694,81434.29999998212],"honeypot":0,"survey":"mace","page":6,"trial_type":"survey-mace","trial_index":14,"time_elapsed":806795,"internal_node_id":"0.0-14.0","task_version":"prescreen-v0.3","browser_interactions":0},{"responses":{"01":"No","02":"No","03":"Yes","03_ages_13":"13","04":"No","05":"No","06":"No","07":"No"},"rt":59906.90000000596,"item_order":[0,1,2,3,4,5,6],"radio_events":[11062.5,24028.29999998212,33818.29999998212,41840.29999998212,45256.29999998212,48030.29999998212,58438.19999998808],"checkbox_events":[30208.29999998212],"key_events":[],"mouse_events":[11062.5,14234.40000000596,24028.29999998212,28462.79999998212,29866.69999998808,30208.29999998212,33818.29999998212,41840.29999998212,45256.29999998212,47554.29999998212,48030.29999998212,48514.29999998212,58438.19999998808,59904.40000000596],"honeypot":0,"survey":"mace","page":7,"trial_type":"survey-mace","trial_index":15,"time_elapsed":866706,"internal_node_id":"0.0-15.0","task_version":"prescreen-v0.3","browser_interactions":0},{"responses":{"01":"Yes","01_ages_13":"13","01_ages_14":"14","01_ages_15":"15","01_ages_16":"16","01_ages_17":"17","01_ages_18":"18","02":"Yes","02_ages_12":"12","02_ages_13":"13","02_ages_14":"14","02_ages_15":"15","02_ages_16":"16","02_ages_17":"17","02_ages_18":"18","03":"Yes","03_ages_1":"1","03_ages_2":"2","03_ages_3":"3","03_ages_4":"4","03_ages_5":"5","03_ages_6":"6","03_ages_7":"7","03_ages_8":"8","03_ages_9":"9","03_ages_10":"10","03_ages_11":"11","03_ages_12":"12","03_ages_13":"13","03_ages_14":"14","03_ages_15":"15","03_ages_16":"16","03_ages_17":"17","03_ages_18":"18","04":"Yes","04_ages_11":"11","04_ages_12":"12","04_ages_13":"13","04_ages_14":"14","04_ages_15":"15","04_ages_16":"16","04_ages_17":"17"},"rt":91869.5,"item_order":[0,1,2,3],"radio_events":[18807.90000000596,42148.30000001192,53901.80000001192,74217.90000000596],"checkbox_events":[21948.09999999404,24016,25020.20000001788,26892.30000001192,28022,30055.90000000596,44510,45515.90000000596,45982,46428.20000001788,46839.90000000596,47393.90000000596,47923.90000000596,58697.90000000596,59110.20000001788,59812.20000001788,60202,60630.09999999404,61019.80000001192,61410.20000001788,61869.80000001192,62454.09999999404,62946.09999999404,63320,64178,65442,66219.80000001192,66851.80000001192,67629.90000000596,68003.70000001788,68549.80000001192,78513.80000001192,79199.90000000596,80275.80000001192,80813.90000000596,81655.80000001192,82552.20000001788,83143.90000000596,83533.70000001788,83971.80000001192,84439.80000001192,87458,88321.90000000596,90192.09999999404],"key_events":[],"mouse_events":[18807.90000000596,21948.09999999404,24016,24481.90000000596,25020.20000001788,25536.20000001788,26252.30000001192,26892.30000001192,28022,30055.90000000596,42148.30000001192,44065.90000000596,44510,45125.90000000596,45515.90000000596,45982,46428.20000001788,46839.90000000596,47393.90000000596,47923.90000000596,53901.80000001192,58697.90000000596,59110.20000001788,59812.20000001788,60202,60630.09999999404,61019.80000001192,61410.20000001788,61869.80000001192,62454.09999999404,62946.09999999404,63320,63780.09999999404,64178,65033.80000001192,65442,66219.80000001192,66851.80000001192,67271.80000001192,67629.90000000596,68003.70000001788,68549.80000001192,74217.90000000596,78513.80000001192,79199.90000000596,79869.90000000596,80275.80000001192,80813.90000000596,81655.80000001192,82061.90000000596,82552.20000001788,83143.90000000596,83533.70000001788,83971.80000001192,84439.80000001192,87003.90000000596,87458,87923.70000001788,88321.90000000596,88749.90000000596,90192.09999999404,91868],"honeypot":0,"survey":"mace","page":8,"trial_type":"survey-mace","trial_index":16,"time_elapsed":958578,"internal_node_id":"0.0-16.0","task_version":"prescreen-v0.3","browser_interactions":0},{"responses":{"01":"Yes","01_ages_1":"1","01_ages_2":"2","01_ages_3":"3","01_ages_4":"4","01_ages_5":"5","01_ages_6":"6","01_ages_7":"7","01_ages_8":"8","01_ages_9":"9","01_ages_10":"10","01_ages_11":"11","01_ages_12":"12","01_ages_13":"13","01_ages_14":"14","01_ages_15":"15","01_ages_16":"16","01_ages_17":"17","01_ages_18":"18","02":"Yes","02_ages_1":"1","02_ages_2":"2","02_ages_3":"3","02_ages_4":"4","02_ages_5":"5","02_ages_6":"6","02_ages_7":"7","02_ages_8":"8","02_ages_9":"9","02_ages_10":"10","02_ages_11":"11","02_ages_12":"12","02_ages_13":"13","02_ages_14":"14","02_ages_15":"15","02_ages_16":"16","02_ages_17":"17","02_ages_18":"18","03":"Yes","03_ages_1":"1","03_ages_2":"2","03_ages_3":"3","03_ages_4":"4","03_ages_5":"5","03_ages_6":"6","03_ages_7":"7","03_ages_8":"8","03_ages_9":"9","03_ages_10":"10","03_ages_11":"11","03_ages_12":"12","03_ages_13":"13","03_ages_14":"14","03_ages_15":"15","03_ages_16":"16","03_ages_17":"17","03_ages_18":"18","04":"Yes","04_ages_1":"1","04_ages_2":"2","04_ages_3":"3","04_ages_4":"4","04_ages_5":"5","04_ages_6":"6","04_ages_7":"7","04_ages_8":"8","04_ages_9":"9","04_ages_10":"10","04_ages_11":"11","04_ages_12":"12","04_ages_13":"13","04_ages_14":"14","04_ages_15":"15","04_ages_16":"16","04_ages_17":"17","04_ages_18":"18"},"rt":90318.70000001788,"item_order":[0,1,2,3],"radio_events":[12307.40000000596,33861.30000001192,51675.20000001788,74261.20000001788],"checkbox_events":[15557.5,16555.40000000596,18129.80000001192,19041.40000000596,19697.40000000596,20515.30000001192,20953.20000001788,21809.5,22223.30000001192,23455.80000001192,24313.40000000596,25069.30000001192,25567.5,26059.30000001192,26643.40000000596,27345.20000001788,27571.5,27977.30000001192,28515.20000001788,29489.20000001788,35639.20000001788,36067.30000001192,37401.30000001192,37899.20000001788,38509.30000001192,39109.59999999404,39607.09999999404,40519.5,41011.40000000596,41501.09999999404,42093.20000001788,42663.09999999404,43855.09999999404,44331.09999999404,44845.09999999404,45523.70000001788,46061.30000001192,46507.09999999404,53483.30000001192,53843.09999999404,54693.20000001788,55543.09999999404,56727.20000001788,57195.09999999404,58029.20000001788,59565.09999999404,60219.09999999404,60757.09999999404,61265.09999999404,61811.40000000596,62309.20000001788,62815.20000001788,63417.09999999404,64429.20000001788,65497.20000001788,66847.09999999404,76101.20000001788,76623.5,78353.09999999404,78869,79407,79929.09999999404,80451.09999999404,81613.30000001192,82619.5,83313.09999999404,83827.09999999404,84677.09999999404,85419.09999999404,86305,86821.20000001788,88013.20000001788,88739.09999999404,89191.09999999404],"key_events":[],"mouse_events":[12307.40000000596,14349.40000000596,15557.5,16555.40000000596,17131.59999999404,18129.80000001192,19041.40000000596,19697.40000000596,20165.5,20515.30000001192,20953.20000001788,21397.40000000596,21809.5,22223.30000001192,22737.5,23119.20000001788,23455.80000001192,23891.20000001788,24313.40000000596,25069.30000001192,25567.5,26059.30000001192,26643.40000000596,27345.20000001788,27571.5,27977.30000001192,28515.20000001788,29061.30000001192,29489.20000001788,33861.30000001192,35639.20000001788,36067.30000001192,36513.20000001788,37401.30000001192,37899.20000001788,38509.30000001192,39109.59999999404,39607.09999999404,40113.09999999404,40519.5,41011.40000000596,41501.09999999404,42093.20000001788,42663.09999999404,43147.40000000596,43855.09999999404,44331.09999999404,44845.09999999404,45523.70000001788,46061.30000001192,46507.09999999404,51675.20000001788,52633.30000001192,53483.30000001192,53843.09999999404,54357.09999999404,54693.20000001788,55543.09999999404,56307.09999999404,56727.20000001788,57195.09999999404,58029.20000001788,59043.20000001788,59565.09999999404,60219.09999999404,60757.09999999404,61265.09999999404,61811.40000000596,62309.20000001788,62815.20000001788,63417.09999999404,64429.20000001788,65497.20000001788,66247.09999999404,66847.09999999404,74261.20000001788,76101.20000001788,76623.5,77567.30000001192,78353.09999999404,78869,79407,79929.09999999404,80451.09999999404,80919.09999999404,81613.30000001192,82619.5,83313.09999999404,83827.09999999404,84372.90000000596,84677.09999999404,85419.09999999404,86305,86821.20000001788,87281.20000001788,87606.90000000596,88013.20000001788,88739.09999999404,89191.09999999404,90317.20000001788],"honeypot":0,"survey":"mace","page":9,"trial_type":"survey-mace","trial_index":17,"time_elapsed":1048900,"internal_node_id":"0.0-17.0","task_version":"prescreen-v0.3","browser_interactions":0},{"responses":{"01":"No","02":"No","03":"Yes","03_ages_15":"15","03_ages_16":"16","03_ages_17":"17","04":"Yes","04_ages_14":"14","04_ages_15":"15","04_ages_16":"16","04_ages_17":"17","05":"Yes","05_ages_12":"12","05_ages_13":"13","05_ages_14":"14","05_ages_15":"15","05_ages_16":"16","05_ages_17":"17","06":"Yes","06_ages_17":"17","07":"Yes","07_ages_1":"1","07_ages_2":"2","07_ages_3":"3","07_ages_4":"4","07_ages_5":"5","07_ages_6":"6","07_ages_7":"7","07_ages_8":"8","07_ages_9":"9","07_ages_10":"10","07_ages_11":"11","07_ages_12":"12","07_ages_13":"13","07_ages_14":"14","07_ages_15":"15","07_ages_16":"16","07_ages_17":"17","07_ages_18":"18","08":"Yes","08_ages_1":"1","08_ages_2":"2","08_ages_3":"3","08_ages_4":"4","08_ages_5":"5","08_ages_6":"6","08_ages_7":"7","08_ages_8":"8","08_ages_9":"9","08_ages_10":"10","08_ages_11":"11","08_ages_12":"12","08_ages_13":"13","08_ages_14":"14","08_ages_15":"15","08_ages_17":"17","08_ages_18":"18"},"rt":121049.30000001192,"item_order":[0,1,2,3,4,5,6,7],"radio_events":[11108.200000017881,23090.5,29794,39890.09999999404,65037.80000001192,81229.80000001192,90589.90000000596,105213.80000001192],"checkbox_events":[32392.59999999404,32858,34097.90000000596,47078.09999999404,48971.90000000596,49517.90000000596,50874,51872,55030,69615.90000000596,70542,70955.90000000596,71733.90000000596,72161.90000000596,73301.90000000596,83233.80000001192,92227.80000001192,92655.80000001192,93054.09999999404,93444,94043.90000000596,94861.80000001192,95346.20000001788,96779.80000001192,97223.80000001192,97996.09999999404,98330.09999999404,98813.80000001192,99211.80000001192,99897.70000001788,100303.80000001192,100739.90000000596,101137.80000001192,101597.80000001192,106335.90000000596,106718,107091.80000001192,107847.80000001192,108229.80000001192,109134.80000001192,109705.90000000596,110117.80000001192,110553.70000001788,111646.09999999404,112299.80000001192,113171.70000001788,114037.59999999404,114576.09999999404,117015.80000001192,118778,119369.80000001192],"key_events":[],"mouse_events":[11108.200000017881,23090.5,29794,32392.59999999404,32858,34097.90000000596,39890.09999999404,47078.09999999404,48971.90000000596,49517.90000000596,50874,51872,55030,65037.80000001192,69615.90000000596,70542,70955.90000000596,71336,71733.90000000596,72161.90000000596,73301.90000000596,81229.80000001192,82903.80000001192,83233.80000001192,90589.90000000596,91727.70000001788,92227.80000001192,92655.80000001192,93054.09999999404,93444,94043.90000000596,94495.80000001192,94861.80000001192,95346.20000001788,95805.70000001788,96779.80000001192,97223.80000001192,97996.09999999404,98330.09999999404,98813.80000001192,99211.80000001192,99897.70000001788,100303.80000001192,100739.90000000596,101137.80000001192,101597.80000001192,105213.80000001192,106335.90000000596,106718,107091.80000001192,107847.80000001192,108229.80000001192,108759.70000001788,109134.80000001192,109705.90000000596,110117.80000001192,110553.70000001788,111146,111646.09999999404,112299.80000001192,113171.70000001788,113648,114037.59999999404,114576.09999999404,117015.80000001192,118778,119369.80000001192,121046.30000001192],"honeypot":0,"survey":"mace","page":10,"trial_type":"survey-mace","trial_index":18,"time_elapsed":1169954,"internal_node_id":"0.0-18.0","task_version":"prescreen-v0.3","browser_interactions":0,"instructed":0},{"rt":6293.199999988079,"trial_type":"mental-health-alert","trial_index":19,"time_elapsed":1176249,"internal_node_id":"0.0-19.0","task_version":"prescreen-v0.3","interactions":"[{\"event\":\"blur\",\"trial\":3,\"time\":271495},{\"event\":\"focus\",\"trial\":3,\"time\":273227}]"}]