[{"view_history":[{"page_index":0,"viewing_time":32933.700000047684},{"page_index":1,"viewing_time":1160.6000000238419},{"page_index":2,"viewing_time":1623.1000000238419},{"page_index":3,"viewing_time":951.3999999761581}],"rt":36670.300000071526,"trial_type":"instructions","trial_index":0,"time_elapsed":36676,"internal_node_id":"0.0-0.0","task_version":"prescreen-v0.3"},{"rt":19597,"responses":{"age":"21","gender-categorical":"Female","gender-free-response":"","ethnicity":"Not Hispanic or Latino","race":["White"],"education":"Some college"},"trial_type":"survey-demo","trial_index":1,"time_elapsed":56281,"internal_node_id":"0.0-1.0","task_version":"prescreen-v0.3"},{"responses":{"Q13":"2","Q09":"0","Q12":"1","Q07":"1","Q21":"2","Q02":"2","Q18":"2","Q17":"2","Q19":"1","Q08":"3","Q20":"0","Q05":"3","Q15":"3","Q10":"3","Q11":"3","Q04":"3","Q14":"3","Q03":"3","Q01":"3","Q16":"3","Q06":"1"},"rt":76102.70000004768,"item_order":[12,8,11,6,20,1,17,16,18,7,19,4,14,9,10,3,13,2,0,15,5],"radio_events":[3850.2000000476837,8897.5,13757.899999976158,15956.700000047684,18782.399999976158,23501.899999976158,24424.899999976158,26731.5,32569.299999952316,44835.799999952316,47406,52645.799999952316,56976.700000047684,61926.700000047684,63827.799999952316,65665.39999997616,66703.89999997616,68127.29999995232,68876.5,71019.10000002384,73777.79999995232,75300.79999995232],"key_events":[],"mouse_events":[3143.399999976158,3850.2000000476837,8897.5,12496.700000047684,13757.899999976158,15956.700000047684,18782.399999976158,21854.100000023842,23501.899999976158,24424.899999976158,26731.5,32569.299999952316,44835.799999952316,47406,52645.799999952316,56976.700000047684,61926.700000047684,63827.799999952316,65665.39999997616,66703.89999997616,68127.29999995232,68876.5,71019.10000002384,73126.70000004768,73777.79999995232,75300.79999995232,76099.39999997616],"straightlining":0.47619047619047616,"zigzagging":0.25,"honeypot":0,"survey":"sns","trial_type":"survey-template","trial_index":2,"time_elapsed":132389,"internal_node_id":"0.0-2.0","task_version":"prescreen-v0.3","browser_interactions":0,"infrequency":0.5},{"responses":{"Q01":"3","Q10":"2","Q04":"3","Q02":"2","Q13":"0","Q07":"3","Q11":"3","Q06":"3","Q08":"3","Q12":"3","Q09":"3","Q05":"3","Q03":"1"},"rt":33271.800000071526,"item_order":[0,9,3,1,12,6,10,5,7,11,8,4,2],"radio_events":[2250.2000000476837,6000.600000023842,7902.700000047684,11337,16690.899999976158,18597.399999976158,21801.300000071526,23799.100000023842,24872.899999976158,27103.700000047684,27886.899999976158,28972.200000047684,32629.899999976158],"key_events":[],"mouse_events":[2250.2000000476837,4979.399999976158,6000.600000023842,7342.899999976158,7902.700000047684,10599.200000047684,11337,16690.899999976158,18597.399999976158,21801.300000071526,23799.100000023842,24872.899999976158,27103.700000047684,27886.899999976158,28972.200000047684,32102.200000047684,32629.899999976158,33269.200000047684],"straightlining":0.6923076923076923,"zigzagging":0.3333333333333333,"honeypot":0,"survey":"bisbas","trial_type":"survey-template","trial_index":3,"time_elapsed":165664,"internal_node_id":"0.0-3.0","task_version":"prescreen-v0.3","browser_interactions":0,"infrequency":0},{"responses":{"Q01":"2","Q02":"2","Q03":"1"},"rt":10676.200000047684,"radio_events":[3412.399999976158,6200.200000047684,8929.899999976158,9950.799999952316],"key_events":[],"mouse_events":[3412.399999976158,6200.200000047684,8929.899999976158,9950.799999952316,10674.5],"survey":"map","page":1,"trial_type":"survey-map","trial_index":4,"time_elapsed":176346,"internal_node_id":"0.0-4.0","task_version":"prescreen-v0.3","browser_interactions":0},{"responses":{"Q04":"4","Q05":"4","Q06":"4"},"rt":7589.5,"radio_events":[2710.600000023842,4878,6887],"key_events":[],"mouse_events":[2710.600000023842,4878,6887,7587.100000023842],"survey":"map","page":2,"trial_type":"survey-map","trial_index":5,"time_elapsed":183939,"internal_node_id":"0.0-5.0","task_version":"prescreen-v0.3","browser_interactions":0},{"responses":{"Q07":"0","Q08":"0","Q09":"0"},"rt":10280.600000023842,"radio_events":[3747.5,7452.700000047684,9513.100000023842],"key_events":[],"mouse_events":[3747.5,7452.700000047684,9513.100000023842,10278.200000047684],"survey":"map","page":3,"trial_type":"survey-map","trial_index":6,"time_elapsed":194225,"internal_node_id":"0.0-6.0","task_version":"prescreen-v0.3","browser_interactions":0},{"responses":{"Q10":"2","Q11":"0","Q12":"1","Q13":"1","Q16":"0","Q14":"2","Q15":"1"},"rt":85538.39999997616,"radio_events":[11585.5,56879.89999997616,60906,67879,69602,76898.69999992847,82388.19999992847,84537.79999995232],"key_events":[],"mouse_events":[11585.5,21905.5,56879.89999997616,60906,67879,68687.09999990463,69602,76898.69999992847,82388.19999992847,84537.79999995232,85533.69999992847],"survey":"map","page":4,"trial_type":"survey-map","trial_index":7,"time_elapsed":279765,"internal_node_id":"0.0-7.0","task_version":"prescreen-v0.3","browser_interactions":0,"infrequency":0},{"view_history":[{"page_index":0,"viewing_time":2396.100000023842},{"page_index":1,"viewing_time":2427.2999999523163}],"rt":4824.5,"trial_type":"instructions","trial_index":8,"time_elapsed":284592,"internal_node_id":"0.0-8.0","task_version":"prescreen-v0.3"},{"responses":{"01":"Yes","01_ages_3":"3","01_ages_4":"4","01_ages_5":"5","01_ages_6":"6","01_ages_7":"7","01_ages_8":"8","01_ages_9":"9","01_ages_10":"10","01_ages_11":"11","01_ages_12":"12","01_ages_13":"13","01_ages_14":"14","01_ages_15":"15","01_ages_16":"16","01_ages_17":"17","01_ages_18":"18","02":"Yes","02_ages_5":"5","02_ages_6":"6","02_ages_7":"7","02_ages_8":"8","02_ages_9":"9","02_ages_10":"10","02_ages_11":"11","02_ages_12":"12","02_ages_13":"13","02_ages_14":"14","02_ages_15":"15","02_ages_16":"16","02_ages_17":"17","02_ages_18":"18","03":"Yes","03_ages_5":"5","03_ages_6":"6","03_ages_7":"7","03_ages_8":"8","03_ages_9":"9","03_ages_10":"10","03_ages_11":"11","03_ages_12":"12","03_ages_13":"13","03_ages_14":"14","03_ages_15":"15","03_ages_16":"16","03_ages_17":"17","03_ages_18":"18","04":"Yes","04_ages_5":"5","04_ages_6":"6","04_ages_7":"7","04_ages_8":"8","04_ages_9":"9","04_ages_10":"10","04_ages_11":"11","04_ages_12":"12","04_ages_13":"13","04_ages_14":"14","04_ages_15":"15","04_ages_16":"16","05":"Yes","05_ages_4":"4","05_ages_5":"5","05_ages_6":"6","05_ages_7":"7","05_ages_8":"8","05_ages_9":"9","06":"Yes","06_ages_5":"5","06_ages_6":"6","06_ages_7":"7","06_ages_8":"8","06_ages_9":"9","06_ages_10":"10","06_ages_11":"11","06_ages_12":"12","06_ages_13":"13","06_ages_14":"14","06_ages_15":"15","06_ages_16":"16","06_ages_17":"17","06_ages_18":"18"},"rt":75444.79999995232,"item_order":[0,1,2,3,4,5],"radio_events":[2944,18012.899999976158,31778,33777.89999997616,35048.299999952316,64047.39999997616],"checkbox_events":[5680.799999952316,6577.899999976158,7173.399999976158,7784.899999976158,8326,8773.799999952316,9768.299999952316,10398.700000047684,11575.299999952316,12060.799999952316,13443.899999976158,13992,15354.200000047684,15824.299999952316,16285.5,16944,18912,19817.700000047684,21102.200000047684,22336.899999976158,23101.899999976158,24004.299999952316,24535.299999952316,25597.799999952316,26072,26593.799999952316,27523.299999952316,27984.5,28470.899999976158,28964.299999952316,29647.5,30479.799999952316,38078.60000002384,38559.39999997616,39099.10000002384,40119.89999997616,40648.200000047684,41326,44665.10000002384,45225.39999997616,45799.89999997616,46405.39999997616,46934,47506.299999952316,48000.39999997616,48524.200000047684,49034.5,49515,50027,50601.799999952316,53392.5,53828.89999997616,54571,55031.299999952316,56077.799999952316,56612.60000002384,57106.200000047684,58110.700000047684,58588.299999952316,59436,60243.700000047684,60916.799999952316,61370.5,62038.89999997616,65651.70000004768,66137.39999997616,66788.10000002384,67940.70000004768,68574.60000002384,69063.10000002384,69620.70000004768,70760.79999995232,71743.70000004768,72379,72979.29999995232,73564.5,74131.79999995232,74741.20000004768],"key_events":[],"mouse_events":[3.399999976158142,2944,5680.799999952316,6108.799999952316,6577.899999976158,7173.399999976158,7784.899999976158,8326,8773.799999952316,9247.399999976158,9768.299999952316,10398.700000047684,11013.399999976158,11575.299999952316,12060.799999952316,12678.5,13443.899999976158,13992,15354.200000047684,15824.299999952316,16285.5,16944,18012.899999976158,18912,19817.700000047684,20574.100000023842,21102.200000047684,22336.899999976158,23101.899999976158,24004.299999952316,24535.299999952316,25069.600000023842,25597.799999952316,26072,26593.799999952316,27086.200000047684,27523.299999952316,27984.5,28470.899999976158,28964.299999952316,29647.5,30479.799999952316,31778,33777.89999997616,35048.299999952316,38078.60000002384,38559.39999997616,39099.10000002384,39657.89999997616,40119.89999997616,40648.200000047684,41326,44665.10000002384,45225.39999997616,45799.89999997616,46405.39999997616,46934,47506.299999952316,48000.39999997616,48524.200000047684,49034.5,49515,50027,50601.799999952316,53392.5,53828.89999997616,54571,55031.299999952316,55653.39999997616,56077.799999952316,56612.60000002384,57106.200000047684,57587.10000002384,58110.700000047684,58588.299999952316,59063.299999952316,59436,59851.89999997616,60243.700000047684,60916.799999952316,61370.5,62038.89999997616,64047.39999997616,65651.70000004768,66137.39999997616,66788.10000002384,67940.70000004768,68574.60000002384,69063.10000002384,69620.70000004768,70172.29999995232,70760.79999995232,71325.10000002384,71743.70000004768,72379,72979.29999995232,73564.5,74131.79999995232,74741.20000004768,75434.89999997616],"honeypot":0,"survey":"mace","page":1,"trial_type":"survey-mace","trial_index":9,"time_elapsed":360047,"internal_node_id":"0.0-9.0","task_version":"prescreen-v0.3","browser_interactions":0},{"responses":{"01":"Yes","01_ages_5":"5","01_ages_6":"6","01_ages_7":"7","01_ages_8":"8","01_ages_9":"9","01_ages_10":"10","01_ages_11":"11","01_ages_12":"12","02":"No","03":"No","04":"No","05":"No","06":"No","07":"No","08":"No"},"rt":20757.399999976158,"item_order":[0,1,2,3,4,5,6,7],"radio_events":[1545.7999999523163,9960.5,11455.899999976158,12636,14321.299999952316,15350.399999976158,17369.199999928474,19944.699999928474],"checkbox_events":[3143.100000023842,4084.1999999284744,4568,5292,6065.799999952316,6830.899999976158,7476.299999952316,8083.299999952316],"key_events":[],"mouse_events":[1545.7999999523163,3143.100000023842,3612.2999999523163,4084.1999999284744,4568,5292,6065.799999952316,6830.899999976158,7476.299999952316,8083.299999952316,9960.5,11455.899999976158,12636,14321.299999952316,15350.399999976158,16248.600000023842,17369.199999928474,19944.699999928474,20744.600000023842],"honeypot":0,"survey":"mace","page":2,"trial_type":"survey-mace","trial_index":10,"time_elapsed":380810,"internal_node_id":"0.0-10.0","task_version":"prescreen-v0.3","browser_interactions":0},{"responses":{"01":"No","02":"No","03":"No","04":"No"},"rt":7059.799999952316,"item_order":[0,1,2,3],"radio_events":[2541.2999999523163,3685.600000023842,4920.299999952316,6220.299999952316],"checkbox_events":[],"key_events":[],"mouse_events":[2541.2999999523163,3685.600000023842,4920.299999952316,6220.299999952316,7051.799999952316],"honeypot":0,"survey":"mace","page":3,"trial_type":"survey-mace","trial_index":11,"time_elapsed":387874,"internal_node_id":"0.0-11.0","task_version":"prescreen-v0.3","browser_interactions":0},{"responses":{"01":"No","02":"No"},"rt":3442.3000000715256,"item_order":[0,1],"radio_events":[1597.6000000238419,2473.899999976158],"checkbox_events":[],"key_events":[],"mouse_events":[1597.6000000238419,2473.899999976158,3437.600000023842],"honeypot":0,"survey":"mace","page":4,"trial_type":"survey-mace","trial_index":12,"time_elapsed":391321,"internal_node_id":"0.0-12.0","task_version":"prescreen-v0.3","browser_interactions":0},{"responses":{"01":"No","02":"No","03":"No","04":"No","05":"No"},"rt":12567.700000047684,"item_order":[0,1,2,3,4],"radio_events":[5545.200000047684,7536.799999952316,10054.899999976158,10806.299999952316,12044],"checkbox_events":[],"key_events":[],"mouse_events":[5545.200000047684,7536.799999952316,8360.799999952316,10054.899999976158,10806.299999952316,12044,12559.399999976158],"honeypot":0,"survey":"mace","page":5,"trial_type":"survey-mace","trial_index":13,"time_elapsed":403894,"internal_node_id":"0.0-13.0","task_version":"prescreen-v0.3","browser_interactions":0},{"responses":{"01":"Yes","01_ages_5":"5","01_ages_6":"6","01_ages_7":"7","01_ages_8":"8","01_ages_9":"9","01_ages_10":"10","01_ages_11":"11","01_ages_12":"12","01_ages_13":"13","01_ages_14":"14","01_ages_15":"15","01_ages_16":"16","01_ages_17":"17","01_ages_18":"18","02":"Yes","02_ages_6":"6","02_ages_7":"7","02_ages_8":"8","02_ages_9":"9","02_ages_10":"10","02_ages_11":"11","02_ages_12":"12","02_ages_13":"13","02_ages_14":"14","02_ages_15":"15","02_ages_16":"16","02_ages_17":"17","02_ages_18":"18","03":"Yes","03_ages_6":"6","03_ages_7":"7","03_ages_8":"8","03_ages_9":"9","03_ages_10":"10","03_ages_11":"11","03_ages_12":"12","03_ages_13":"13","03_ages_14":"14","03_ages_15":"15","03_ages_16":"16","03_ages_17":"17","03_ages_18":"18","04":"Yes","04_ages_5":"5","04_ages_6":"6","04_ages_7":"7","04_ages_8":"8","04_ages_9":"9","04_ages_10":"10","04_ages_11":"11","04_ages_12":"12","04_ages_13":"13","04_ages_14":"14","04_ages_15":"15","04_ages_16":"16","04_ages_17":"17","04_ages_18":"18","05":"No"},"rt":50243.10000002384,"item_order":[0,1,2,3,4],"radio_events":[3600.100000023842,10462.100000023842,13044.700000047684,13619.200000047684,15570.100000023842],"checkbox_events":[4613.5,5058.399999976158,5536.200000047684,6400.300000071526,6869,7437.5,8054.300000071526,9174.100000023842,9652.700000047684,17372.600000023842,17898.100000023842,18772.700000047684,19232.600000023842,20171.899999976158,20632.600000023842,21142.399999976158,21956,23159.700000047684,23683,24353.200000047684,24888.100000023842,25514.5,26089.5,26996,27496.200000047684,28098.399999976158,28743.399999976158,29237,29737,30221.800000071526,30700.300000071526,31152.5,32305.800000071526,32943.300000071526,33556.700000047684,34091.800000071526,35326.10000002384,35803.200000047684,36401.89999997616,36906.89999997616,37468.89999997616,37925.10000002384,38388.300000071526,38848.800000071526,39680.800000071526,40268,41015.39999997616,41451.800000071526,41968.60000002384,44191.60000002384,44661.700000047684,45130.300000071526,46068.5,46480.700000047684,46917.10000002384,47385.60000002384,48216.89999997616,48916.89999997616],"key_events":[],"mouse_events":[3600.100000023842,4613.5,5058.399999976158,5536.200000047684,6400.300000071526,6869,7437.5,8054.300000071526,8622.399999976158,9174.100000023842,9652.700000047684,10462.100000023842,12070.600000023842,13044.700000047684,13619.200000047684,15570.100000023842,17372.600000023842,17898.100000023842,18407.100000023842,18772.700000047684,19232.600000023842,19763.100000023842,20171.899999976158,20632.600000023842,21142.399999976158,21956,23159.700000047684,23683,24353.200000047684,24888.100000023842,25514.5,26089.5,26996,27496.200000047684,28098.399999976158,28743.399999976158,29237,29737,30221.800000071526,30700.300000071526,31152.5,31642.100000023842,32305.800000071526,32943.300000071526,33556.700000047684,34091.800000071526,35326.10000002384,35803.200000047684,36401.89999997616,36906.89999997616,37468.89999997616,37925.10000002384,38388.300000071526,38848.800000071526,39680.800000071526,40268,41015.39999997616,41451.800000071526,41968.60000002384,44191.60000002384,44661.700000047684,45130.300000071526,45591,46068.5,46480.700000047684,46917.10000002384,47385.60000002384,47804.800000071526,48216.89999997616,48916.89999997616,50233.800000071526],"honeypot":0,"survey":"mace","page":6,"trial_type":"survey-mace","trial_index":14,"time_elapsed":454141,"internal_node_id":"0.0-14.0","task_version":"prescreen-v0.3","browser_interactions":0},{"responses":{"01":"No","02":"No","03":"No","04":"No","05":"No","06":"No","07":"No"},"rt":10310.100000023842,"item_order":[0,1,2,3,4,5,6],"radio_events":[3327,4456.399999976158,5345.600000023842,7240.899999976158,7997.5,9006.399999976158,9795.100000023842],"checkbox_events":[],"key_events":[],"mouse_events":[2245.600000023842,3327,4456.399999976158,5345.600000023842,6315.899999976158,7240.899999976158,7997.5,9006.399999976158,9795.100000023842,10297.899999976158],"honeypot":0,"survey":"mace","page":7,"trial_type":"survey-mace","trial_index":15,"time_elapsed":464458,"internal_node_id":"0.0-15.0","task_version":"prescreen-v0.3","browser_interactions":0},{"responses":{"01":"Yes","01_ages_5":"5","01_ages_6":"6","01_ages_7":"7","01_ages_8":"8","01_ages_10":"10","01_ages_11":"11","01_ages_12":"12","01_ages_13":"13","01_ages_14":"14","01_ages_15":"15","01_ages_16":"16","01_ages_17":"17","01_ages_18":"18","02":"No","03":"Yes","03_ages_5":"5","03_ages_6":"6","03_ages_7":"7","03_ages_8":"8","03_ages_9":"9","03_ages_10":"10","03_ages_11":"11","03_ages_12":"12","03_ages_13":"13","03_ages_14":"14","03_ages_15":"15","03_ages_16":"16","03_ages_17":"17","03_ages_18":"18","04":"Yes","04_ages_5":"5","04_ages_6":"6","04_ages_7":"7","04_ages_8":"8","04_ages_9":"9","04_ages_10":"10","04_ages_11":"11","04_ages_12":"12","04_ages_13":"13","04_ages_14":"14","04_ages_15":"15","04_ages_16":"16","04_ages_17":"17","04_ages_18":"18"},"rt":47938.60000002384,"item_order":[0,1,2,3],"radio_events":[2838.100000023842,8197.299999952316,14626.299999952316,17456.799999952316],"checkbox_events":[4682.600000023842,5093.700000047684,5696.799999952316,6444,6567.100000023842,7206.899999976158,10134.600000023842,10600.299999952316,11577.899999976158,12074.200000047684,12551.5,12979,13447.799999952316,20836.100000023842,21325.5,21818.799999952316,22354.200000047684,22937.899999976158,23473.200000047684,24016.700000047684,25087.200000047684,25597.299999952316,26082.899999976158,26528.299999952316,28099.799999952316,28593.100000023842,29086.799999952316,29614.200000047684,30206.700000047684,30675.799999952316,31202.200000047684,31745.5,32222.899999976158,32685.200000047684,33169.799999952316,37548.60000002384,38585,39063.5,39631.700000047684,40495.799999952316,41916.10000002384,42824.5,43513.60000002384,45286.299999952316,47062.799999952316],"key_events":[],"mouse_events":[2838.100000023842,4682.600000023842,5093.700000047684,5696.799999952316,6444,6567.100000023842,7206.899999976158,8197.299999952316,9660.5,10134.600000023842,10600.299999952316,11094.5,11577.899999976158,12074.200000047684,12551.5,12979,13447.799999952316,13932.200000047684,14626.299999952316,15802.899999976158,17456.799999952316,20836.100000023842,21325.5,21818.799999952316,22354.200000047684,22937.899999976158,23473.200000047684,24016.700000047684,24580.700000047684,25087.200000047684,25597.299999952316,26082.899999976158,26528.299999952316,26997.299999952316,28099.799999952316,28593.100000023842,29086.799999952316,29614.200000047684,30206.700000047684,30675.799999952316,31202.200000047684,31745.5,32222.899999976158,32685.200000047684,33169.799999952316,33605.299999952316,37128.700000047684,37548.60000002384,38032.5,38585,39063.5,39631.700000047684,40495.799999952316,41916.10000002384,42824.5,43513.60000002384,44602.39999997616,45286.299999952316,46601.799999952316,47062.799999952316,47933.39999997616],"honeypot":0,"survey":"mace","page":8,"trial_type":"survey-mace","trial_index":16,"time_elapsed":512399,"internal_node_id":"0.0-16.0","task_version":"prescreen-v0.3","browser_interactions":0},{"responses":{"01":"Yes","01_ages_3":"3","01_ages_4":"4","01_ages_5":"5","01_ages_6":"6","01_ages_7":"7","01_ages_8":"8","01_ages_9":"9","01_ages_10":"10","01_ages_11":"11","01_ages_12":"12","01_ages_13":"13","01_ages_14":"14","01_ages_15":"15","01_ages_16":"16","01_ages_17":"17","01_ages_18":"18","02":"Yes","02_ages_3":"3","02_ages_4":"4","02_ages_5":"5","02_ages_6":"6","02_ages_10":"10","02_ages_11":"11","02_ages_12":"12","02_ages_13":"13","02_ages_14":"14","02_ages_15":"15","02_ages_16":"16","02_ages_17":"17","02_ages_18":"18","03":"Yes","03_ages_3":"3","03_ages_4":"4","03_ages_5":"5","03_ages_11":"11","03_ages_12":"12","03_ages_13":"13","03_ages_14":"14","04":"Yes","04_ages_5":"5","04_ages_6":"6","04_ages_7":"7","04_ages_8":"8","04_ages_9":"9","04_ages_10":"10","04_ages_12":"12","04_ages_14":"14","04_ages_15":"15","04_ages_16":"16","04_ages_17":"17"},"rt":61595,"item_order":[0,1,2,3],"radio_events":[2569.9000000953674,8749.200000047684,9343.300000071526,10821.600000023842],"checkbox_events":[4263.300000071526,6206.800000071526,6758.200000047684,7386.700000047684,7895.800000071526,11647.600000023842,12092.700000047684,12502.900000095367,12901.700000047684,13781,14165.900000095367,15654.600000023842,16615.400000095367,17555.900000095367,18478,19086.900000095367,19560.900000095367,20036.700000047684,20538.700000047684,21005.600000023842,21547.900000095367,24263.400000095367,25513.600000023842,26305.200000047684,26758,27564,28058.600000023842,28610.900000095367,29062.200000047684,29655,30182.100000023842,33095.90000009537,33954.60000002384,34642.60000002384,35292.10000002384,35893.700000047684,36593.40000009537,38986.700000047684,39836.200000047684,40271.800000071526,40725.5,41210.10000002384,42485.90000009537,43058.10000002384,43556.60000002384,44067.200000047684,44551.60000002384,45095.90000009537,45655.700000047684,47770.300000071526,49397.40000009537,49910.800000071526,52418.300000071526,53556.10000002384,54066.200000047684,54528.800000071526,55016.5,55711.40000009537,56395.10000002384,57342.60000002384,57778.5,58271.200000047684,58798.200000047684,59299.10000002384,60774.90000009537],"key_events":[],"mouse_events":[2569.9000000953674,4263.300000071526,5836.800000071526,6206.800000071526,6758.200000047684,7386.700000047684,7895.800000071526,8749.200000047684,9343.300000071526,10298.100000023842,10821.600000023842,11647.600000023842,12092.700000047684,12502.900000095367,12901.700000047684,13334.900000095367,13781,14165.900000095367,15384.700000047684,15654.600000023842,16106.600000023842,16615.400000095367,17106.600000023842,17555.900000095367,18478,19086.900000095367,19560.900000095367,20036.700000047684,20538.700000047684,21005.600000023842,21547.900000095367,22050.200000047684,23003,24263.400000095367,25513.600000023842,26305.200000047684,26758,27564,28058.600000023842,28610.900000095367,29062.200000047684,29655,30182.100000023842,30725.300000071526,31332.400000095367,32066.800000071526,32511.700000047684,33095.90000009537,33531.700000047684,33954.60000002384,34642.60000002384,35292.10000002384,35893.700000047684,36593.40000009537,38986.700000047684,39413.90000009537,39836.200000047684,40271.800000071526,40725.5,41210.10000002384,42485.90000009537,43058.10000002384,43556.60000002384,44067.200000047684,44551.60000002384,45095.90000009537,45655.700000047684,47770.300000071526,48214.300000071526,49016.5,49397.40000009537,49910.800000071526,52418.300000071526,52870.40000009537,53556.10000002384,54066.200000047684,54528.800000071526,55016.5,55711.40000009537,56395.10000002384,56832,57342.60000002384,57778.5,58271.200000047684,58798.200000047684,59299.10000002384,59926.300000071526,60774.90000009537,61588.5],"honeypot":0,"survey":"mace","page":9,"trial_type":"survey-mace","trial_index":17,"time_elapsed":573997,"internal_node_id":"0.0-17.0","task_version":"prescreen-v0.3","browser_interactions":0},{"responses":{"01":"No","02":"No","03":"No","04":"No","05":"No","06":"Yes","06_ages_17":"17","07":"Yes","07_ages_6":"6","07_ages_7":"7","07_ages_8":"8","07_ages_9":"9","07_ages_10":"10","07_ages_11":"11","07_ages_12":"12","07_ages_13":"13","08":"No"},"rt":26116.899999976158,"item_order":[0,1,2,3,4,5,6,7],"radio_events":[2054,2880.600000023842,4216.299999952316,6495.799999952316,10242.399999976158,12133,13641.200000047684,17537.700000047684,25483.399999976158],"checkbox_events":[14909.100000023842,19229.100000023842,19714.600000023842,20652.200000047684,21130.899999976158,21796.600000023842,22378.700000047684,22947.700000047684,23451.100000023842],"key_events":[],"mouse_events":[2054,2880.600000023842,4216.299999952316,6495.799999952316,10242.399999976158,12133,13641.200000047684,14909.100000023842,17537.700000047684,19229.100000023842,19714.600000023842,20184.600000023842,20652.200000047684,21130.899999976158,21796.600000023842,22378.700000047684,22947.700000047684,23451.100000023842,25483.399999976158,26103.600000023842],"honeypot":0,"survey":"mace","page":10,"trial_type":"survey-mace","trial_index":18,"time_elapsed":600119,"internal_node_id":"0.0-18.0","task_version":"prescreen-v0.3","browser_interactions":0,"instructed":0},{"rt":3707.600000023842,"trial_type":"mental-health-alert","trial_index":19,"time_elapsed":603830,"internal_node_id":"0.0-19.0","task_version":"prescreen-v0.3","interactions":"[]"}]