[{"view_history":[{"page_index":0,"viewing_time":2669},{"page_index":1,"viewing_time":3277.699999999255},{"page_index":2,"viewing_time":4563.5},{"page_index":3,"viewing_time":2065.39999999851}],"rt":12577.39999999851,"trial_type":"instructions","trial_index":0,"time_elapsed":12586,"internal_node_id":"0.0-0.0","task_version":"prescreen-v0.3"},{"rt":20755,"responses":{"age":"23","gender-categorical":"Other","gender-free-response":"Nonbinary","ethnicity":"Not Hispanic or Latino","race":["Black or African American"],"education":"Bachelor degree"},"trial_type":"survey-demo","trial_index":1,"time_elapsed":33349,"internal_node_id":"0.0-1.0","task_version":"prescreen-v0.3"},{"responses":{"Q18":"2","Q01":"2","Q10":"0","Q03":"0","Q12":"1","Q02":"0","Q09":"1","Q21":"3","Q04":"1","Q06":"0","Q08":"2","Q20":"1","Q13":"2","Q11":"1","Q14":"2","Q16":"2","Q05":"1","Q17":"1","Q15":"3","Q07":"0","Q19":"1"},"rt":105934,"item_order":[17,0,9,2,11,1,8,20,3,5,7,19,12,10,13,15,4,16,14,6,18],"radio_events":[5441.599999997765,8336,12541.5,15242.29999999702,19260.29999999702,20729.89999999851,26361.199999999255,29110.39999999851,33225.39999999851,37681.79999999702,41717.79999999702,47646.199999999255,51843.29999999702,57097.89999999851,60016.5,63864.39999999851,71014.09999999776,75106.29999999702,84421.89999999851,88725.69999999925,92181.19999999925,94288.69999999925,100919.19999999925,104693.39999999851],"key_events":[],"mouse_events":[5441.599999997765,8336,12541.5,15242.29999999702,19260.29999999702,20729.89999999851,26361.199999999255,29110.39999999851,33225.39999999851,37681.79999999702,41717.79999999702,47646.199999999255,51843.29999999702,57097.89999999851,60016.5,63864.39999999851,71014.09999999776,75106.29999999702,84421.89999999851,88725.69999999925,92181.19999999925,94288.69999999925,100919.19999999925,104693.39999999851,105929.89999999851],"straightlining":0.38095238095238093,"zigzagging":0.55,"honeypot":0,"survey":"sns","trial_type":"survey-template","trial_index":2,"time_elapsed":139292,"internal_node_id":"0.0-2.0","task_version":"prescreen-v0.3","browser_interactions":0,"infrequency":0},{"responses":{"Q05":"3","Q07":"2","Q02":"2","Q11":"2","Q03":"2","Q10":"2","Q01":"3","Q13":"0","Q09":"2","Q08":"2","Q12":"1","Q04":"3","Q06":"2"},"rt":61150.79999999702,"item_order":[4,6,1,10,2,9,0,12,8,7,11,3,5],"radio_events":[5574.099999997765,9170.199999999255,14019.199999999255,20208.199999999255,27586.79999999702,29384.699999999255,31230.29999999702,35241.89999999851,41429.5,43398.599999997765,51370.29999999702,57064.599999997765,60196.29999999702],"key_events":[],"mouse_events":[5574.099999997765,9170.199999999255,14019.199999999255,19028.89999999851,20208.199999999255,27586.79999999702,29384.699999999255,31230.29999999702,35241.89999999851,41429.5,43398.599999997765,51370.29999999702,57064.599999997765,60196.29999999702,61148.099999997765],"straightlining":0.6153846153846154,"zigzagging":0.4166666666666667,"honeypot":0,"survey":"bisbas","trial_type":"survey-template","trial_index":3,"time_elapsed":200448,"internal_node_id":"0.0-3.0","task_version":"prescreen-v0.3","browser_interactions":0,"infrequency":0},{"responses":{"Q01":"2","Q02":"3","Q03":"2"},"rt":15571.900000002235,"radio_events":[4017.60000000149,9737.800000000745,14251.900000002235],"key_events":[],"mouse_events":[4017.60000000149,9737.800000000745,13406.10000000149,14251.900000002235,15569.800000000745],"survey":"map","page":1,"trial_type":"survey-map","trial_index":4,"time_elapsed":216027,"internal_node_id":"0.0-4.0","task_version":"prescreen-v0.3","browser_interactions":0},{"responses":{"Q04":"2","Q05":"2","Q06":"2"},"rt":22158.20000000298,"radio_events":[3936.60000000149,11020.800000000745,13477.60000000149,21098],"key_events":[],"mouse_events":[3936.60000000149,11020.800000000745,13477.60000000149,17634.5,21098,22156.300000000745],"survey":"map","page":2,"trial_type":"survey-map","trial_index":5,"time_elapsed":238190,"internal_node_id":"0.0-5.0","task_version":"prescreen-v0.3","browser_interactions":0},{"responses":{"Q07":"1","Q08":"0","Q09":"2"},"rt":19307.79999999702,"radio_events":[7616.79999999702,10390,15556.099999997765,17070.099999997765],"key_events":[],"mouse_events":[7616.79999999702,10390,15556.099999997765,17070.099999997765,19306.099999997765],"survey":"map","page":3,"trial_type":"survey-map","trial_index":6,"time_elapsed":257502,"internal_node_id":"0.0-6.0","task_version":"prescreen-v0.3","browser_interactions":0},{"responses":{"Q10":"0","Q11":"0","Q12":"1","Q13":"2","Q16":"0","Q14":"1","Q15":"1"},"rt":38042.900000002235,"radio_events":[4198.300000000745,6548.800000000745,10299.900000002235,11455.70000000298,15327.20000000298,24285.70000000298,31135.20000000298,34299.400000002235,35617.10000000149,36527.400000002235],"key_events":[],"mouse_events":[4198.300000000745,6548.800000000745,10299.900000002235,11455.70000000298,15327.20000000298,24285.70000000298,31135.20000000298,34299.400000002235,35617.10000000149,36527.400000002235,38040.5],"survey":"map","page":4,"trial_type":"survey-map","trial_index":7,"time_elapsed":295550,"internal_node_id":"0.0-7.0","task_version":"prescreen-v0.3","browser_interactions":0,"infrequency":0},{"view_history":[{"page_index":0,"viewing_time":19713.199999999255},{"page_index":1,"viewing_time":3674.5}],"rt":23389.199999999255,"trial_type":"instructions","trial_index":8,"time_elapsed":318942,"internal_node_id":"0.0-8.0","task_version":"prescreen-v0.3"},{"responses":{"01":"No","02":"Yes","02_ages_12":"12","02_ages_13":"13","02_ages_14":"14","02_ages_15":"15","02_ages_16":"16","03":"No","04":"No","05":"No","06":"Yes","06_ages_5":"5","06_ages_6":"6","06_ages_7":"7","06_ages_8":"8","06_ages_9":"9","06_ages_10":"10","06_ages_11":"11","06_ages_12":"12"},"rt":53798.099999997765,"item_order":[0,1,2,3,4,5],"radio_events":[5917.699999999255,9317.099999997765,30241.5,32374.099999997765,36896.89999999851,52905.5],"checkbox_events":[14508.699999999255,15190.800000000745,21635.199999999255,22260.699999999255,23359.599999997765,25834.199999999255,27142.599999997765,41126.699999999255,41590.800000000745,43184.599999997765,43787.300000000745,44640.300000000745,45405.5,45918.300000000745,46422.300000000745,46893.599999997765,47350.300000000745,47796.099999997765,48536.800000000745],"key_events":[],"mouse_events":[0.3999999985098839,5917.699999999255,9317.099999997765,14102,14508.699999999255,15190.800000000745,21635.199999999255,22260.699999999255,23359.599999997765,25834.199999999255,27142.599999997765,29779.099999997765,30241.5,32374.099999997765,33293.5,36896.89999999851,41126.699999999255,41590.800000000745,42624.199999999255,43184.599999997765,43787.300000000745,44640.300000000745,45405.5,45918.300000000745,46422.300000000745,46893.599999997765,47350.300000000745,47796.099999997765,48536.800000000745,50344.89999999851,52905.5,53792.300000000745],"honeypot":0,"survey":"mace","page":1,"trial_type":"survey-mace","trial_index":9,"time_elapsed":372743,"internal_node_id":"0.0-9.0","task_version":"prescreen-v0.3","browser_interactions":0},{"responses":{"01":"No","02":"No","03":"Yes","03_ages_5":"5","03_ages_6":"6","03_ages_7":"7","03_ages_8":"8","03_ages_9":"9","03_ages_10":"10","03_ages_11":"11","03_ages_12":"12","04":"Yes","04_ages_5":"5","04_ages_6":"6","04_ages_7":"7","04_ages_8":"8","04_ages_9":"9","04_ages_10":"10","04_ages_11":"11","04_ages_12":"12","05":"Yes","05_ages_5":"5","05_ages_6":"6","05_ages_7":"7","05_ages_8":"8","05_ages_9":"9","05_ages_10":"10","05_ages_11":"11","05_ages_12":"12","06":"No","07":"No","08":"No"},"rt":41150.599999997765,"item_order":[0,1,2,3,4,5,6,7],"radio_events":[2893.099999997765,6204.199999999255,7449.199999999255,18309.199999999255,26166.39999999851,36724.89999999851,38693,39962.199999999255],"checkbox_events":[9297.599999997765,10239.79999999702,10702.29999999702,11149.099999997765,12198.89999999851,12760.199999999255,13281.099999997765,13760.79999999702,14581.89999999851,19398.79999999702,19910.79999999702,20398.199999999255,20878.199999999255,21350.199999999255,21830.39999999851,22285.5,22765.39999999851,23230.29999999702,27045,27931.5,28459.89999999851,28964.79999999702,29452.29999999702,29940,30476.79999999702,31006.099999997765,31681.5,32373.89999999851,33617.5,34308.29999999702],"key_events":[],"mouse_events":[2893.099999997765,6204.199999999255,7449.199999999255,8848.79999999702,9297.599999997765,9774.29999999702,10239.79999999702,10702.29999999702,11149.099999997765,11807.89999999851,12198.89999999851,12760.199999999255,13281.099999997765,13760.79999999702,14581.89999999851,18309.199999999255,19398.79999999702,19910.79999999702,20398.199999999255,20878.199999999255,21350.199999999255,21830.39999999851,22285.5,22765.39999999851,23230.29999999702,26166.39999999851,27045,27515.89999999851,27931.5,28459.89999999851,28964.79999999702,29452.29999999702,29940,30476.79999999702,31006.099999997765,31681.5,32373.89999999851,33098.39999999851,33617.5,34308.29999999702,36724.89999999851,38693,39962.199999999255,40572.29999999702,41141.89999999851],"honeypot":0,"survey":"mace","page":2,"trial_type":"survey-mace","trial_index":10,"time_elapsed":413862,"internal_node_id":"0.0-10.0","task_version":"prescreen-v0.3","browser_interactions":0},{"responses":{"01":"No","02":"No","03":"No","04":"No"},"rt":12522.5,"item_order":[0,1,2,3],"radio_events":[7092,9320,11108.800000000745,11938.400000002235],"checkbox_events":[],"key_events":[],"mouse_events":[7092,9320,10563.699999999255,11108.800000000745,11938.400000002235,12516],"honeypot":0,"survey":"mace","page":3,"trial_type":"survey-mace","trial_index":11,"time_elapsed":426388,"internal_node_id":"0.0-11.0","task_version":"prescreen-v0.3","browser_interactions":0},{"responses":{"01":"No","02":"No"},"rt":7833.39999999851,"item_order":[0,1],"radio_events":[5864.60000000149,7189.199999999255],"checkbox_events":[],"key_events":[],"mouse_events":[5864.60000000149,6692.89999999851,7189.199999999255,7830.89999999851],"honeypot":0,"survey":"mace","page":4,"trial_type":"survey-mace","trial_index":12,"time_elapsed":434225,"internal_node_id":"0.0-12.0","task_version":"prescreen-v0.3","browser_interactions":0},{"responses":{"01":"No","02":"No","03":"No","04":"No","05":"No"},"rt":15426.800000000745,"item_order":[0,1,2,3,4],"radio_events":[4408.60000000149,6182.5,8720,12436.10000000149,14526.60000000149],"checkbox_events":[],"key_events":[],"mouse_events":[4408.60000000149,6182.5,8720,12436.10000000149,14526.60000000149,15420.89999999851],"honeypot":0,"survey":"mace","page":5,"trial_type":"survey-mace","trial_index":13,"time_elapsed":449657,"internal_node_id":"0.0-13.0","task_version":"prescreen-v0.3","browser_interactions":0},{"responses":{"01":"Yes","01_ages_10":"10","01_ages_11":"11","01_ages_12":"12","01_ages_13":"13","01_ages_14":"14","01_ages_15":"15","02":"Yes","02_ages_10":"10","02_ages_11":"11","02_ages_12":"12","02_ages_13":"13","02_ages_14":"14","02_ages_15":"15","03":"No","04":"Yes","04_ages_15":"15","04_ages_16":"16","05":"No"},"rt":33872,"item_order":[0,1,2,3,4],"radio_events":[5480.199999999255,15972.199999999255,21903.39999999851,23935.89999999851,32720.199999999255],"checkbox_events":[7578.5,8317.199999999255,9464.199999999255,11017.800000000745,13662.10000000149,14255.699999999255,16654.5,17144.39999999851,17614.699999999255,18119.10000000149,18607.300000000745,19070.300000000745,25732.699999999255,26318.800000000745,27937.10000000149,28840.199999999255],"key_events":[],"mouse_events":[5480.199999999255,7578.5,8317.199999999255,8821.89999999851,9464.199999999255,11017.800000000745,13662.10000000149,14255.699999999255,15972.199999999255,16654.5,17144.39999999851,17614.699999999255,18119.10000000149,18607.300000000745,19070.300000000745,21903.39999999851,23935.89999999851,25732.699999999255,26318.800000000745,27937.10000000149,28840.199999999255,29645.699999999255,32720.199999999255,33866.89999999851],"honeypot":0,"survey":"mace","page":6,"trial_type":"survey-mace","trial_index":14,"time_elapsed":483533,"internal_node_id":"0.0-14.0","task_version":"prescreen-v0.3","browser_interactions":0},{"responses":{"01":"No","02":"No","03":"No","04":"No","05":"No","06":"No","07":"No"},"rt":19376.599999997765,"item_order":[0,1,2,3,4,5,6],"radio_events":[4068,7077.699999999255,8735.599999997765,11453.599999997765,12909.099999997765,13779.699999999255,17017.699999999255],"checkbox_events":[],"key_events":[],"mouse_events":[4068,7077.699999999255,8735.599999997765,9752.599999997765,11453.599999997765,12339.800000000745,12909.099999997765,13779.699999999255,14600.89999999851,17017.699999999255,19368.300000000745],"honeypot":0,"survey":"mace","page":7,"trial_type":"survey-mace","trial_index":15,"time_elapsed":502914,"internal_node_id":"0.0-15.0","task_version":"prescreen-v0.3","browser_interactions":0},{"responses":{"01":"No","02":"No","03":"No","04":"No"},"rt":19690.79999999702,"item_order":[0,1,2,3],"radio_events":[6487.099999997765,12682.599999997765,16132.099999997765,18426.29999999702],"checkbox_events":[],"key_events":[],"mouse_events":[6487.099999997765,12682.599999997765,16132.099999997765,18426.29999999702,19686.29999999702],"honeypot":0,"survey":"mace","page":8,"trial_type":"survey-mace","trial_index":16,"time_elapsed":522610,"internal_node_id":"0.0-16.0","task_version":"prescreen-v0.3","browser_interactions":0},{"responses":{"01":"Yes","01_ages_1":"1","01_ages_2":"2","01_ages_3":"3","01_ages_4":"4","01_ages_5":"5","01_ages_6":"6","01_ages_7":"7","01_ages_8":"8","01_ages_9":"9","01_ages_10":"10","01_ages_11":"11","01_ages_12":"12","01_ages_13":"13","01_ages_14":"14","01_ages_15":"15","01_ages_16":"16","01_ages_17":"17","01_ages_18":"18","02":"Yes","02_ages_1":"1","02_ages_2":"2","02_ages_3":"3","02_ages_4":"4","02_ages_5":"5","02_ages_6":"6","02_ages_7":"7","02_ages_8":"8","02_ages_9":"9","02_ages_10":"10","02_ages_11":"11","02_ages_12":"12","02_ages_13":"13","02_ages_14":"14","02_ages_15":"15","02_ages_16":"16","02_ages_17":"17","02_ages_18":"18","03":"Yes","03_ages_1":"1","03_ages_2":"2","03_ages_3":"3","03_ages_4":"4","03_ages_5":"5","03_ages_6":"6","03_ages_7":"7","03_ages_8":"8","03_ages_9":"9","03_ages_10":"10","03_ages_11":"11","03_ages_12":"12","03_ages_13":"13","03_ages_14":"14","03_ages_15":"15","03_ages_16":"16","03_ages_17":"17","03_ages_18":"18","04":"Yes","04_ages_1":"1","04_ages_2":"2","04_ages_3":"3","04_ages_4":"4","04_ages_5":"5","04_ages_6":"6","04_ages_7":"7","04_ages_8":"8","04_ages_9":"9","04_ages_10":"10","04_ages_11":"11","04_ages_12":"12","04_ages_13":"13","04_ages_14":"14","04_ages_15":"15","04_ages_16":"16","04_ages_17":"17","04_ages_18":"18"},"rt":59695.5,"item_order":[0,1,2,3],"radio_events":[4366.199999999255,19211.79999999702,34447.29999999702,48577],"checkbox_events":[6961.89999999851,7978.5,9060,9540.29999999702,10026.699999999255,10523.39999999851,11011,11524.199999999255,12003.199999999255,12516.39999999851,12996.79999999702,13475.89999999851,13971.699999999255,14493.099999997765,14980.89999999851,15500.699999999255,15973.29999999702,16461.199999999255,20374.5,20878.39999999851,21863.599999997765,22334.29999999702,23270,23774.099999997765,24294.79999999702,25254.39999999851,25750.29999999702,26743.79999999702,27247.699999999255,28338.39999999851,28882.39999999851,29403.699999999255,30208.199999999255,30818.39999999851,31925.099999997765,32453.099999997765,36333.89999999851,37009.79999999702,37537.39999999851,38058.29999999702,38562.89999999851,39099.5,39620.199999999255,40108.29999999702,40620.699999999255,41149.29999999702,41678.79999999702,42249.099999997765,42809.39999999851,43338.5,43866.39999999851,44371.699999999255,44883.89999999851,45380.099999997765,49561.199999999255,50066,50585.89999999851,51090.79999999702,51553.79999999702,52059.099999997765,52530.5,53002.39999999851,53498.5,53962.29999999702,54441.89999999851,54930.5,55393.89999999851,55882.39999999851,56329.79999999702,56817.79999999702,57281.39999999851,57793.599999997765],"key_events":[],"mouse_events":[4366.199999999255,6961.89999999851,7514.39999999851,7978.5,8540.599999997765,9060,9540.29999999702,10026.699999999255,10523.39999999851,11011,11524.199999999255,12003.199999999255,12516.39999999851,12996.79999999702,13475.89999999851,13971.699999999255,14493.099999997765,14980.89999999851,15500.699999999255,15973.29999999702,16461.199999999255,19211.79999999702,20374.5,20878.39999999851,21382.29999999702,21863.599999997765,22334.29999999702,22879.699999999255,23270,23774.099999997765,24294.79999999702,24790.89999999851,25254.39999999851,25750.29999999702,26336.29999999702,26743.79999999702,27247.699999999255,27808.79999999702,28338.39999999851,28882.39999999851,29403.699999999255,30208.199999999255,30818.39999999851,31395.39999999851,31925.099999997765,32453.099999997765,34447.29999999702,36333.89999999851,37009.79999999702,37537.39999999851,38058.29999999702,38562.89999999851,39099.5,39620.199999999255,40108.29999999702,40620.699999999255,41149.29999999702,41678.79999999702,42249.099999997765,42809.39999999851,43338.5,43866.39999999851,44371.699999999255,44883.89999999851,45380.099999997765,48577,49561.199999999255,50066,50585.89999999851,51090.79999999702,51553.79999999702,52059.099999997765,52530.5,53002.39999999851,53498.5,53962.29999999702,54441.89999999851,54930.5,55393.89999999851,55882.39999999851,56329.79999999702,56817.79999999702,57281.39999999851,57793.599999997765,59690.5],"honeypot":0,"survey":"mace","page":9,"trial_type":"survey-mace","trial_index":17,"time_elapsed":582310,"internal_node_id":"0.0-17.0","task_version":"prescreen-v0.3","browser_interactions":0},{"responses":{"01":"No","02":"No","03":"Yes","03_ages_12":"12","03_ages_13":"13","03_ages_14":"14","03_ages_15":"15","03_ages_16":"16","03_ages_17":"17","03_ages_18":"18","04":"Yes","04_ages_14":"14","04_ages_15":"15","04_ages_16":"16","04_ages_17":"17","04_ages_18":"18","05":"Yes","05_ages_13":"13","05_ages_14":"14","05_ages_15":"15","05_ages_16":"16","05_ages_17":"17","05_ages_18":"18","06":"Yes","06_ages_17":"17","07":"Yes","07_ages_1":"1","07_ages_2":"2","07_ages_3":"3","07_ages_4":"4","07_ages_5":"5","07_ages_6":"6","07_ages_7":"7","07_ages_8":"8","07_ages_9":"9","07_ages_10":"10","07_ages_11":"11","07_ages_12":"12","07_ages_13":"13","07_ages_14":"14","07_ages_15":"15","07_ages_16":"16","07_ages_17":"17","07_ages_18":"18","08":"Yes","08_ages_1":"1","08_ages_2":"2","08_ages_3":"3","08_ages_4":"4","08_ages_5":"5","08_ages_6":"6","08_ages_7":"7","08_ages_8":"8","08_ages_9":"9","08_ages_10":"10","08_ages_11":"11","08_ages_12":"12","08_ages_13":"13","08_ages_14":"14","08_ages_15":"15","08_ages_16":"16","08_ages_17":"17","08_ages_18":"18"},"rt":97139.30000000075,"item_order":[0,1,2,3,4,5,6,7],"radio_events":[5024.10000000149,6577.60000000149,8154.60000000149,19543.300000000745,28849.60000000149,49721.5,55887.39999999851,69789.19999999925],"checkbox_events":[11676.39999999851,12709,13197.89999999851,13702.699999999255,14173.89999999851,14645.300000000745,15515.5,20698.300000000745,21274.89999999851,21763.10000000149,22218.60000000149,22708,23209.800000000745,24659.60000000149,32233.699999999255,33201.5,33671.60000000149,34152.5,34688.300000000745,35192.699999999255,35950.10000000149,36478.199999999255,36958.699999999255,37414.10000000149,37844.5,38303.5,38708.199999999255,39374.5,40269,40775,41245.5,41701.10000000149,42164.89999999851,42603.199999999255,43165.10000000149,43693.39999999851,44198.39999999851,52413.699999999255,58636.300000000745,59157.89999999851,60231.10000000149,60694,61158.5,61629.10000000149,62093.89999999851,62572.199999999255,63060.699999999255,63541.699999999255,64549.60000000149,65094.10000000149,65582.5,66069.89999999851,66533.69999999925,67021.5,67510,67981.69999999925,71692,72155.60000000149,72669.80000000075,73130.89999999851,73578.30000000075,74685.80000000075,75595.60000000149,76116.30000000075,76645.10000000149,77614.39999999851,78085.30000000075,78614,79117.89999999851,79622.69999999925,80623.5,81086.80000000075,81656,82192.69999999925,89271,89855.80000000075,91141.80000000075],"key_events":[],"mouse_events":[5024.10000000149,6577.60000000149,8154.60000000149,11676.39999999851,12709,13197.89999999851,13702.699999999255,14173.89999999851,14645.300000000745,15515.5,19543.300000000745,20698.300000000745,21274.89999999851,21763.10000000149,22218.60000000149,22708,23209.800000000745,24659.60000000149,28849.60000000149,32233.699999999255,33201.5,33671.60000000149,34152.5,34688.300000000745,35192.699999999255,35950.10000000149,36478.199999999255,36958.699999999255,37414.10000000149,37844.5,38303.5,38708.199999999255,39374.5,40269,40775,41245.5,41701.10000000149,42164.89999999851,42603.199999999255,43165.10000000149,43693.39999999851,44198.39999999851,49721.5,51999.89999999851,52413.699999999255,55887.39999999851,58636.300000000745,59157.89999999851,59612,60231.10000000149,60694,61158.5,61629.10000000149,62093.89999999851,62572.199999999255,63060.699999999255,63541.699999999255,64093.60000000149,64549.60000000149,65094.10000000149,65582.5,66069.89999999851,66533.69999999925,67021.5,67510,67981.69999999925,69789.19999999925,71692,72155.60000000149,72669.80000000075,73130.89999999851,73578.30000000075,74091.5,74685.80000000075,75124.89999999851,75595.60000000149,76116.30000000075,76645.10000000149,77142.69999999925,77614.39999999851,78085.30000000075,78614,79117.89999999851,79622.69999999925,80175.80000000075,80623.5,81086.80000000075,81656,82192.69999999925,89271,89855.80000000075,91141.80000000075,97129.89999999851],"honeypot":0,"survey":"mace","page":10,"trial_type":"survey-mace","trial_index":18,"time_elapsed":679453,"internal_node_id":"0.0-18.0","task_version":"prescreen-v0.3","browser_interactions":0,"instructed":0},{"rt":5826.39999999851,"trial_type":"mental-health-alert","trial_index":19,"time_elapsed":685283,"internal_node_id":"0.0-19.0","task_version":"prescreen-v0.3","interactions":"[{\"event\":\"blur\",\"trial\":8,\"time\":302371},{\"event\":\"focus\",\"trial\":8,\"time\":314607}]"}]