[{"view_history":[{"page_index":0,"viewing_time":4172.70000000298},{"page_index":1,"viewing_time":5640.10000000149},{"page_index":2,"viewing_time":4119.69999999553},{"page_index":3,"viewing_time":2288.5}],"rt":16222.30000000447,"trial_type":"instructions","trial_index":0,"time_elapsed":16271,"internal_node_id":"0.0-0.0","task_version":"prescreen-v0.3"},{"rt":22224.60000000149,"responses":{"age":"53","gender-categorical":"Male","gender-free-response":"","ethnicity":"Not Hispanic or Latino","race":["White"],"education":"Some college"},"trial_type":"survey-demo","trial_index":1,"time_elapsed":38505,"internal_node_id":"0.0-1.0","task_version":"prescreen-v0.3"},{"responses":{"Q05":"0","Q02":"0","Q03":"0","Q04":"0","Q21":"3","Q20":"0","Q15":"2","Q16":"1","Q01":"1","Q14":"1","Q08":"1","Q07":"1","Q13":"0","Q11":"0","Q17":"0","Q06":"1","Q12":"1","Q10":"0","Q19":"1","Q18":"1","Q09":"2"},"rt":170623.79999999702,"item_order":[4,1,2,3,20,19,14,15,0,13,7,6,12,10,16,5,11,9,18,17,8],"radio_events":[11541.20000000298,20877.10000000149,26455.10000000149,33893,40502.39999999851,44092.79999999702,55053,79332.89999999851,83420.89999999851,89501.10000000149,95108.89999999851,102709.10000000149,111044.89999999851,116245,122772.89999999851,130332.89999999851,138084.70000000298,142972.79999999702,156140.70000000298,161244.70000000298,169332.70000000298],"key_events":[],"mouse_events":[11541.20000000298,20877.10000000149,25597.10000000149,26455.10000000149,33893,40502.39999999851,44092.79999999702,55053,79332.89999999851,83420.89999999851,89501.10000000149,95108.89999999851,102709.10000000149,111044.89999999851,116245,122772.89999999851,130332.89999999851,138084.70000000298,142972.79999999702,156140.70000000298,161244.70000000298,169332.70000000298,170621.20000000298],"straightlining":0.42857142857142855,"zigzagging":0.4,"honeypot":0,"survey":"sns","trial_type":"survey-template","trial_index":2,"time_elapsed":209139,"internal_node_id":"0.0-2.0","task_version":"prescreen-v0.3","browser_interactions":0,"infrequency":0},{"responses":{"Q12":"2","Q06":"3","Q05":"3","Q02":"2","Q08":"3","Q11":"3","Q07":"3","Q03":"2","Q04":"2","Q13":"0","Q09":"2","Q01":"2","Q10":"2"},"rt":90343.60000000149,"item_order":[11,5,4,1,7,10,6,2,3,12,8,0,9],"radio_events":[16380.89999999851,23692.69999999553,27260.69999999553,42484.69999999553,43469,48045.19999999553,52340.60000000149,64797.69999999553,68804.69999999553,73412.79999999702,83852.89999999851,86469.10000000149,88788.60000000149],"key_events":[],"mouse_events":[16380.89999999851,23692.69999999553,27260.69999999553,34692.69999999553,42484.69999999553,43469,48045.19999999553,52340.60000000149,64797.69999999553,68804.69999999553,73412.79999999702,83852.89999999851,86469.10000000149,88788.60000000149,90341.10000000149],"straightlining":0.5384615384615384,"zigzagging":0.3333333333333333,"honeypot":0,"survey":"bisbas","trial_type":"survey-template","trial_index":3,"time_elapsed":299489,"internal_node_id":"0.0-3.0","task_version":"prescreen-v0.3","browser_interactions":0,"infrequency":0},{"responses":{"Q01":"2","Q02":"2","Q03":"1"},"rt":37968.20000000298,"radio_events":[17134.5,26942.30000000447,34678.30000000447],"key_events":[],"mouse_events":[17134.5,26942.30000000447,34678.30000000447,37966.60000000149],"survey":"map","page":1,"trial_type":"survey-map","trial_index":4,"time_elapsed":337464,"internal_node_id":"0.0-4.0","task_version":"prescreen-v0.3","browser_interactions":0},{"responses":{"Q04":"3","Q05":"3","Q06":"3"},"rt":15337.20000000298,"radio_events":[7552.80000000447,12057,14681.10000000149],"key_events":[],"mouse_events":[7552.80000000447,12057,14681.10000000149,15336.60000000149],"survey":"map","page":2,"trial_type":"survey-map","trial_index":5,"time_elapsed":352806,"internal_node_id":"0.0-5.0","task_version":"prescreen-v0.3","browser_interactions":0},{"responses":{"Q07":"2","Q08":"1","Q09":"2"},"rt":21028.70000000298,"radio_events":[10820.10000000149,14748.10000000149,20076.39999999851],"key_events":[],"mouse_events":[10820.10000000149,14748.10000000149,20076.39999999851,21028],"survey":"map","page":3,"trial_type":"survey-map","trial_index":6,"time_elapsed":373839,"internal_node_id":"0.0-6.0","task_version":"prescreen-v0.3","browser_interactions":0},{"responses":{"Q10":"3","Q11":"1","Q12":"3","Q13":"3","Q16":"0","Q14":"3","Q15":"2"},"rt":92850.89999999851,"radio_events":[5113.60000000149,8945.70000000298,13434.10000000149,68930.10000000149,82321.60000000149,87569.60000000149,91209.60000000149],"key_events":[],"mouse_events":[5113.60000000149,8945.70000000298,13434.10000000149,68930.10000000149,80634.80000000447,82321.60000000149,87569.60000000149,91209.60000000149,92849.80000000447],"survey":"map","page":4,"trial_type":"survey-map","trial_index":7,"time_elapsed":466696,"internal_node_id":"0.0-7.0","task_version":"prescreen-v0.3","browser_interactions":0,"infrequency":0},{"view_history":[{"page_index":0,"viewing_time":2978.60000000149},{"page_index":1,"viewing_time":5135.79999999702}],"rt":8115.70000000298,"trial_type":"instructions","trial_index":8,"time_elapsed":474814,"internal_node_id":"0.0-8.0","task_version":"prescreen-v0.3"},{"responses":{"01":"Yes","01_ages_5":"5","01_ages_6":"6","01_ages_7":"7","01_ages_8":"8","01_ages_9":"9","01_ages_10":"10","01_ages_11":"11","01_ages_12":"12","01_ages_13":"13","01_ages_14":"14","01_ages_15":"15","01_ages_16":"16","01_ages_17":"17","01_ages_18":"18","02":"Yes","02_ages_5":"5","02_ages_6":"6","02_ages_7":"7","02_ages_8":"8","02_ages_9":"9","02_ages_10":"10","02_ages_11":"11","02_ages_12":"12","02_ages_13":"13","02_ages_14":"14","02_ages_15":"15","02_ages_16":"16","02_ages_17":"17","02_ages_18":"18","03":"No","04":"No","05":"No","06":"No"},"rt":110577.5,"item_order":[0,1,2,3,4,5],"radio_events":[9983,74334.5,94734.40000000596,97502.09999999404,99590.09999999404,107566.20000000298],"checkbox_events":[29206.59999999404,30447.09999999404,30934.70000000298,31351.29999999702,31718.70000000298,32110.70000000298,32606.20000000298,33086.20000000298,33558.29999999702,34046.59999999404,35094.20000000298,36582.70000000298,37238.40000000596,37870,76863.20000000298,77430.70000000298,77990.09999999404,78446.20000000298,78878.79999999702,79326.5,79726.5,80206.5,80630.79999999702,81166.59999999404,81654,82286.09999999404,82902.20000000298,83374],"key_events":[],"mouse_events":[0.20000000298023224,9983,29206.59999999404,29766.59999999404,30447.09999999404,30934.70000000298,31351.29999999702,31718.70000000298,32110.70000000298,32606.20000000298,33086.20000000298,33558.29999999702,34046.59999999404,34630.20000000298,35094.20000000298,35654.70000000298,36582.70000000298,37238.40000000596,37870,74334.5,76863.20000000298,77430.70000000298,77990.09999999404,78446.20000000298,78878.79999999702,79326.5,79726.5,80206.5,80630.79999999702,81166.59999999404,81654,82286.09999999404,82902.20000000298,83374,94734.40000000596,97502.09999999404,99590.09999999404,107566.20000000298,110574.29999999702],"honeypot":0,"survey":"mace","page":1,"trial_type":"survey-mace","trial_index":9,"time_elapsed":585405,"internal_node_id":"0.0-9.0","task_version":"prescreen-v0.3","browser_interactions":0},{"responses":{"01":"Yes","01_ages_5":"5","01_ages_6":"6","01_ages_7":"7","01_ages_8":"8","01_ages_9":"9","01_ages_10":"10","01_ages_11":"11","01_ages_12":"12","01_ages_13":"13","01_ages_14":"14","01_ages_15":"15","02":"No","03":"Yes","03_ages_1":"1","03_ages_2":"2","03_ages_3":"3","03_ages_4":"4","03_ages_5":"5","03_ages_6":"6","03_ages_7":"7","03_ages_8":"8","03_ages_9":"9","03_ages_10":"10","03_ages_11":"11","03_ages_12":"12","03_ages_13":"13","03_ages_14":"14","03_ages_15":"15","04":"Yes","04_ages_1":"1","04_ages_2":"2","04_ages_3":"3","04_ages_4":"4","05":"Yes","05_ages_5":"5","05_ages_6":"6","05_ages_7":"7","05_ages_8":"8","05_ages_9":"9","05_ages_10":"10","05_ages_11":"11","05_ages_12":"12","05_ages_13":"13","05_ages_14":"14","05_ages_15":"15","06":"No","07":"No","08":"No"},"rt":92371.5,"item_order":[0,1,2,3,4,5,6,7],"radio_events":[8748.10000000894,30692.20000000298,33484.29999999702,50956.60000000894,64925,83316.20000000298,85116.5,87045.29999999702],"checkbox_events":[17332.5,17900.40000000596,18732.29999999702,19660.29999999702,20244.10000000894,20676.29999999702,21236.29999999702,21852.40000000596,22948.29999999702,23396.20000000298,23884.29999999702,36236.29999999702,36701.20000000298,37180.90000000596,37660.20000000298,38212.29999999702,38700.10000000894,39084.70000000298,40372.70000000298,40843.90000000596,41540.5,42043.90000000596,42748.60000000894,43323.70000000298,44460.20000000298,45204.90000000596,53084.60000000894,53532.60000000894,54012.20000000298,54932.20000000298,67180.20000000298,69012.29999999702,73860.20000000298,74564.20000000298,75428.20000000298,75844.40000000596,76684.29999999702,77372.60000000894,77812.60000000894,78228.5,78724.70000000298,79244.79999999702,80084],"key_events":[],"mouse_events":[8748.10000000894,17332.5,17900.40000000596,18732.29999999702,19660.29999999702,20244.10000000894,20676.29999999702,21236.29999999702,21852.40000000596,22948.29999999702,23396.20000000298,23884.29999999702,30692.20000000298,33484.29999999702,36236.29999999702,36701.20000000298,37180.90000000596,37660.20000000298,38212.29999999702,38700.10000000894,39084.70000000298,39468.20000000298,40372.70000000298,40843.90000000596,41540.5,42043.90000000596,42748.60000000894,43323.70000000298,43860.29999999702,44460.20000000298,45204.90000000596,50956.60000000894,53084.60000000894,53532.60000000894,54012.20000000298,54444.5,54932.20000000298,64925,67180.20000000298,69012.29999999702,73860.20000000298,74564.20000000298,74901.60000000894,75428.20000000298,75844.40000000596,76684.29999999702,77372.60000000894,77812.60000000894,78228.5,78724.70000000298,79244.79999999702,80084,83316.20000000298,85116.5,87045.29999999702,92364.40000000596],"honeypot":0,"survey":"mace","page":2,"trial_type":"survey-mace","trial_index":10,"time_elapsed":677783,"internal_node_id":"0.0-10.0","task_version":"prescreen-v0.3","browser_interactions":0},{"responses":{"01":"No","02":"No","03":"No","04":"No"},"rt":17053.40000000596,"item_order":[0,1,2,3],"radio_events":[6481.300000011921,9017.800000011921,11418.10000000894,16106.40000000596],"checkbox_events":[],"key_events":[],"mouse_events":[6481.300000011921,9017.800000011921,11418.10000000894,16106.40000000596,17049.90000000596],"honeypot":0,"survey":"mace","page":3,"trial_type":"survey-mace","trial_index":11,"time_elapsed":694843,"internal_node_id":"0.0-11.0","task_version":"prescreen-v0.3","browser_interactions":0},{"responses":{"01":"No","02":"No"},"rt":9742.09999999404,"item_order":[0,1],"radio_events":[6901,8949.20000000298],"checkbox_events":[],"key_events":[],"mouse_events":[6901,8949.20000000298,9740.90000000596],"honeypot":0,"survey":"mace","page":4,"trial_type":"survey-mace","trial_index":12,"time_elapsed":704591,"internal_node_id":"0.0-12.0","task_version":"prescreen-v0.3","browser_interactions":0},{"responses":{"01":"Yes","01_ages_5":"5","01_ages_6":"6","01_ages_7":"7","01_ages_8":"8","01_ages_9":"9","01_ages_10":"10","02":"No","03":"No","04":"No","05":"No"},"rt":53876,"item_order":[0,1,2,3,4],"radio_events":[6561.4000000059605,28954.10000000894,46377.40000000596,50385.20000000298,53129.20000000298],"checkbox_events":[18185.90000000596,18921.70000000298,19873.20000000298,20369.60000000894,20825.80000001192,21281.70000000298],"key_events":[],"mouse_events":[6561.4000000059605,18185.90000000596,18921.70000000298,19433.5,19873.20000000298,20369.60000000894,20825.80000001192,21281.70000000298,28954.10000000894,46377.40000000596,50385.20000000298,53129.20000000298,53873.40000000596],"honeypot":0,"survey":"mace","page":5,"trial_type":"survey-mace","trial_index":13,"time_elapsed":758475,"internal_node_id":"0.0-13.0","task_version":"prescreen-v0.3","browser_interactions":0},{"responses":{"01":"Yes","01_ages_4":"4","01_ages_5":"5","01_ages_6":"6","01_ages_7":"7","01_ages_8":"8","01_ages_9":"9","01_ages_10":"10","01_ages_11":"11","01_ages_12":"12","01_ages_13":"13","01_ages_14":"14","01_ages_15":"15","01_ages_16":"16","01_ages_17":"17","01_ages_18":"18","02":"Yes","02_ages_4":"4","02_ages_5":"5","02_ages_6":"6","02_ages_7":"7","02_ages_8":"8","02_ages_9":"9","02_ages_10":"10","02_ages_11":"11","02_ages_12":"12","02_ages_13":"13","02_ages_14":"14","02_ages_15":"15","02_ages_16":"16","02_ages_17":"17","02_ages_18":"18","03":"Yes","03_ages_11":"11","03_ages_12":"12","03_ages_13":"13","03_ages_14":"14","03_ages_15":"15","03_ages_16":"16","03_ages_17":"17","03_ages_18":"18","04":"Yes","04_ages_4":"4","04_ages_5":"5","04_ages_6":"6","04_ages_7":"7","04_ages_8":"8","04_ages_9":"9","04_ages_10":"10","04_ages_11":"11","04_ages_12":"12","04_ages_13":"13","04_ages_14":"14","04_ages_15":"15","04_ages_16":"16","04_ages_17":"17","04_ages_18":"18","05":"Yes","05_ages_10":"10","05_ages_11":"11","05_ages_12":"12","05_ages_13":"13","05_ages_14":"14","05_ages_15":"15"},"rt":179048.40000000596,"item_order":[0,1,2,3,4],"radio_events":[12885.70000000298,30357.30000001192,46141.70000000298,67846.5,83501.60000000894],"checkbox_events":[16742.30000001192,17430.70000000298,18005.90000000596,18470.10000000894,19014.5,19573.40000000596,20037.70000000298,21717.90000000596,23045.80000001192,23533.90000000596,24198.10000000894,24653.80000001192,25149.80000001192,25589.70000000298,26039.10000000894,34213.70000000298,34854.20000000298,35365.70000000298,35750.20000000298,36437.70000000298,36870.30000001192,37293.80000001192,37767.30000001192,38230.10000000894,38773.80000001192,39298.60000000894,39918.80000001192,40391.5,40965.70000000298,41494.60000000894,55373.80000001192,56109.70000000298,57693.40000000596,58125.70000000298,58645.60000000894,59117.70000000298,59669.80000001192,60181.70000000298,70950.10000000894,72134,72541.30000001192,73422,73846,74277.90000000596,74671,75166,75629.60000000894,76030.10000000894,76549.70000000298,76990.10000000894,77373.90000000596,78061.20000000298,78669.40000000596,154901.60000000894,155421.5,155925.5,156357.90000000596,156797.60000000894,157293.70000000298],"key_events":[],"mouse_events":[12885.70000000298,16742.30000001192,17430.70000000298,18005.90000000596,18470.10000000894,19014.5,19573.40000000596,20037.70000000298,20693.70000000298,21717.90000000596,23045.80000001192,23533.90000000596,24198.10000000894,24653.80000001192,25149.80000001192,25589.70000000298,26039.10000000894,30357.30000001192,34213.70000000298,34854.20000000298,35365.70000000298,35750.20000000298,36437.70000000298,36870.30000001192,37293.80000001192,37767.30000001192,38230.10000000894,38773.80000001192,39298.60000000894,39918.80000001192,40391.5,40965.70000000298,41494.60000000894,46141.70000000298,55373.80000001192,56109.70000000298,56614.10000000894,57693.40000000596,58125.70000000298,58645.60000000894,59117.70000000298,59669.80000001192,60181.70000000298,67846.5,70950.10000000894,71383.90000000596,72134,72541.30000001192,72989.70000000298,73422,73846,74277.90000000596,74671,75166,75629.60000000894,76030.10000000894,76549.70000000298,76990.10000000894,77373.90000000596,78061.20000000298,78669.40000000596,83501.60000000894,154901.60000000894,155421.5,155925.5,156357.90000000596,156797.60000000894,157293.70000000298,179045.60000000894],"honeypot":0,"survey":"mace","page":6,"trial_type":"survey-mace","trial_index":14,"time_elapsed":937530,"internal_node_id":"0.0-14.0","task_version":"prescreen-v0.3","browser_interactions":0},{"responses":{"01":"Yes","01_ages_10":"10","01_ages_11":"11","01_ages_12":"12","01_ages_13":"13","01_ages_14":"14","02":"No","03":"Yes","03_ages_10":"10","03_ages_11":"11","03_ages_12":"12","03_ages_13":"13","03_ages_14":"14","04":"Yes","04_ages_9":"9","04_ages_10":"10","04_ages_11":"11","04_ages_12":"12","04_ages_13":"13","04_ages_14":"14","05":"Yes","05_ages_9":"9","06":"No","07":"No"},"rt":111563.5,"item_order":[0,1,2,3,4,5,6],"radio_events":[4902.5999999940395,30599.59999999404,34599,64391.09999999404,78231,84198.69999998808,109142.59999999404,110510.69999998808],"checkbox_events":[8894.89999999106,9334.79999999702,9943,11319.699999988079,14710.79999999702,47359.19999998808,47839.39999999106,48391.09999999404,48807.69999998808,49286.69999998808,66719,67231.19999998808,67759,68374.79999999702,69359.19999998808,72022.79999999702,86934.79999999702,95951.09999999404,96574.29999999702],"key_events":[],"mouse_events":[4902.5999999940395,8894.89999999106,9334.79999999702,9943,10502.79999999702,11319.699999988079,14710.79999999702,30599.59999999404,34599,47359.19999998808,47839.39999999106,48391.09999999404,48807.69999998808,49286.69999998808,64391.09999999404,66719,67231.19999998808,67759,68374.79999999702,69359.19999998808,72022.79999999702,78231,84198.69999998808,86934.79999999702,95951.09999999404,96574.29999999702,106943.29999999702,109142.59999999404,110007.09999999404,110510.69999998808,111559],"honeypot":0,"survey":"mace","page":7,"trial_type":"survey-mace","trial_index":15,"time_elapsed":1049100,"internal_node_id":"0.0-15.0","task_version":"prescreen-v0.3","browser_interactions":0},{"responses":{"01":"Yes","01_ages_6":"6","01_ages_7":"7","01_ages_8":"8","01_ages_9":"9","01_ages_10":"10","01_ages_11":"11","01_ages_12":"12","01_ages_13":"13","01_ages_14":"14","01_ages_15":"15","02":"Yes","02_ages_4":"4","02_ages_5":"5","02_ages_6":"6","02_ages_7":"7","02_ages_8":"8","02_ages_9":"9","02_ages_10":"10","02_ages_11":"11","02_ages_12":"12","02_ages_13":"13","02_ages_14":"14","02_ages_15":"15","03":"Yes","03_ages_1":"1","03_ages_2":"2","03_ages_3":"3","03_ages_4":"4","03_ages_5":"5","03_ages_6":"6","03_ages_7":"7","03_ages_8":"8","03_ages_9":"9","03_ages_10":"10","03_ages_11":"11","03_ages_12":"12","03_ages_13":"13","03_ages_14":"14","03_ages_15":"15","03_ages_16":"16","03_ages_17":"17","03_ages_18":"18","04":"Yes","04_ages_6":"6","04_ages_7":"7","04_ages_8":"8","04_ages_9":"9","04_ages_10":"10","04_ages_11":"11","04_ages_12":"12","04_ages_13":"13","04_ages_14":"14","04_ages_15":"15","04_ages_16":"16","04_ages_17":"17","04_ages_18":"18"},"rt":108120.09999999404,"item_order":[0,1,2,3],"radio_events":[15028.59999999404,36052.79999999702,56084.59999999404,78452.70000000298],"checkbox_events":[18772.70000000298,19420.90000000596,20149.09999999404,20541.29999999702,20949.29999999702,21556.5,21988.70000000298,23437,23860.59999999404,24405,40324.90000000596,41460.40000000596,41964.90000000596,42876.79999999702,43884.59999999404,44380.90000000596,44988.40000000596,45812.5,47484.5,47996.90000000596,48609.79999999702,50644.59999999404,57404.29999999702,57756.90000000596,58364.70000000298,58860.5,59476.5,60412.79999999702,61172.09999999404,61732.59999999404,62180.59999999404,62661,63173.09999999404,63748.5,64158.20000000298,64709,65189,65621.09999999404,66110.20000000298,68069.20000000298,92358.09999999404,92941,93420.79999999702,93884.40000000596,94372.29999999702,95284.5,95900.79999999702,96692.59999999404,97156.70000000298,97820.5,106716.5,107132.29999999702,107548.40000000596],"key_events":[],"mouse_events":[15028.59999999404,18772.70000000298,19420.90000000596,20149.09999999404,20541.29999999702,20949.29999999702,21556.5,21988.70000000298,22460.59999999404,23437,23860.59999999404,24405,36052.79999999702,40324.90000000596,41460.40000000596,41964.90000000596,42876.79999999702,43372.90000000596,43884.59999999404,44380.90000000596,44988.40000000596,45812.5,46276.5,47484.5,47996.90000000596,48609.79999999702,50644.59999999404,56084.59999999404,57404.29999999702,57756.90000000596,58364.70000000298,58860.5,59476.5,60412.79999999702,61172.09999999404,61732.59999999404,62180.59999999404,62661,63173.09999999404,63748.5,64158.20000000298,64709,65189,65621.09999999404,66110.20000000298,66493.20000000298,67228.5,68069.20000000298,78452.70000000298,92358.09999999404,92941,93420.79999999702,93884.40000000596,94372.29999999702,95284.5,95900.79999999702,96692.59999999404,97156.70000000298,97820.5,106716.5,107132.29999999702,107548.40000000596,108116.90000000596],"honeypot":0,"survey":"mace","page":8,"trial_type":"survey-mace","trial_index":16,"time_elapsed":1157226,"internal_node_id":"0.0-16.0","task_version":"prescreen-v0.3","browser_interactions":0},{"responses":{"01":"Yes","01_ages_1":"1","01_ages_2":"2","01_ages_3":"3","01_ages_4":"4","01_ages_5":"5","01_ages_6":"6","01_ages_7":"7","01_ages_8":"8","01_ages_9":"9","01_ages_10":"10","01_ages_11":"11","01_ages_12":"12","01_ages_13":"13","01_ages_14":"14","01_ages_15":"15","01_ages_16":"16","01_ages_17":"17","01_ages_18":"18","02":"Yes","02_ages_1":"1","02_ages_2":"2","02_ages_3":"3","02_ages_4":"4","02_ages_5":"5","02_ages_6":"6","02_ages_7":"7","02_ages_8":"8","02_ages_9":"9","02_ages_10":"10","02_ages_11":"11","02_ages_12":"12","02_ages_13":"13","02_ages_14":"14","02_ages_15":"15","02_ages_16":"16","02_ages_17":"17","02_ages_18":"18","03":"Yes","03_ages_1":"1","03_ages_2":"2","03_ages_3":"3","03_ages_4":"4","03_ages_5":"5","03_ages_6":"6","03_ages_7":"7","03_ages_8":"8","03_ages_9":"9","03_ages_10":"10","03_ages_11":"11","03_ages_12":"12","03_ages_13":"13","03_ages_14":"14","03_ages_15":"15","03_ages_16":"16","03_ages_17":"17","03_ages_18":"18","04":"Yes","04_ages_1":"1","04_ages_2":"2","04_ages_3":"3","04_ages_4":"4","04_ages_5":"5","04_ages_6":"6","04_ages_7":"7","04_ages_8":"8","04_ages_9":"9","04_ages_10":"10","04_ages_11":"11","04_ages_12":"12","04_ages_13":"13","04_ages_14":"14","04_ages_15":"15","04_ages_16":"16","04_ages_17":"17","04_ages_18":"18"},"rt":98841.89999999106,"item_order":[0,1,2,3],"radio_events":[14366.70000000298,32407.39999999106,52262.39999999106,83951],"checkbox_events":[17359.89999999106,17654.79999999702,18215.39999999106,18631.20000000298,18991.09999999404,19359.39999999106,19774.79999999702,22094.79999999702,22527.20000000298,22999.20000000298,23854.89999999106,24334.89999999106,24735.09999999404,25191.09999999404,25615.5,26055,26511.09999999404,26894.29999999702,34927,35503.29999999702,36006.70000000298,36383.20000000298,36766.70000000298,37159.20000000298,37591,37998.79999999702,39535,39975.20000000298,40375.09999999404,40886.89999999106,41830.79999999702,42367.5,42830.70000000298,43287.79999999702,44943.20000000298,45350.70000000298,53670,54487.09999999404,55206.70000000298,55687,56103.20000000298,56527.09999999404,57007.09999999404,57390.70000000298,58055.09999999404,58534.29999999702,58943.09999999404,60800.20000000298,63870.70000000298,64510.70000000298,65030.70000000298,65486.29999999702,65879.5,66463.20000000298,85054.59999999404,86103.09999999404,86550.70000000298,89934.59999999404,90398.89999999106,90846.70000000298,91255.20000000298,91726.70000000298,92334.59999999404,93294.5,93743,94166.70000000298,94558.70000000298,95086.79999999702,96191,97119.09999999404,97710.70000000298,98278.59999999404],"key_events":[],"mouse_events":[14366.70000000298,17359.89999999106,17654.79999999702,18215.39999999106,18631.20000000298,18991.09999999404,19359.39999999106,19774.79999999702,20238.70000000298,22094.79999999702,22527.20000000298,22999.20000000298,23486.79999999702,23854.89999999106,24334.89999999106,24735.09999999404,25191.09999999404,25615.5,26055,26511.09999999404,26894.29999999702,32407.39999999106,34927,35503.29999999702,36006.70000000298,36383.20000000298,36766.70000000298,37159.20000000298,37591,37998.79999999702,39535,39975.20000000298,40375.09999999404,40886.89999999106,41278.79999999702,41830.79999999702,42367.5,42830.70000000298,43287.79999999702,44382.70000000298,44943.20000000298,45350.70000000298,52262.39999999106,53670,54118.70000000298,54487.09999999404,54903.09999999404,55206.70000000298,55687,56103.20000000298,56527.09999999404,57007.09999999404,57390.70000000298,58055.09999999404,58534.29999999702,58943.09999999404,59894.29999999702,60800.20000000298,63870.70000000298,64510.70000000298,65030.70000000298,65486.29999999702,65879.5,66463.20000000298,83951,85054.59999999404,85447.09999999404,86103.09999999404,86550.70000000298,89934.59999999404,90398.89999999106,90846.70000000298,91255.20000000298,91726.70000000298,92334.59999999404,92782.70000000298,93294.5,93743,94166.70000000298,94558.70000000298,95086.79999999702,96191,97119.09999999404,97710.70000000298,98278.59999999404,98838.79999999702],"honeypot":0,"survey":"mace","page":9,"trial_type":"survey-mace","trial_index":17,"time_elapsed":1256073,"internal_node_id":"0.0-17.0","task_version":"prescreen-v0.3","browser_interactions":0},{"responses":{"01":"No","02":"No","03":"Yes","03_ages_9":"9","03_ages_10":"10","03_ages_11":"11","03_ages_12":"12","03_ages_13":"13","03_ages_14":"14","03_ages_15":"15","04":"Yes","04_ages_1":"1","04_ages_2":"2","04_ages_3":"3","04_ages_4":"4","04_ages_5":"5","04_ages_6":"6","04_ages_7":"7","04_ages_8":"8","04_ages_9":"9","04_ages_10":"10","04_ages_11":"11","04_ages_12":"12","04_ages_13":"13","04_ages_14":"14","04_ages_15":"15","04_ages_16":"16","04_ages_17":"17","04_ages_18":"18","05":"Yes","05_ages_1":"1","05_ages_2":"2","05_ages_3":"3","05_ages_4":"4","05_ages_5":"5","05_ages_6":"6","05_ages_7":"7","05_ages_8":"8","05_ages_9":"9","05_ages_10":"10","05_ages_11":"11","05_ages_12":"12","05_ages_13":"13","05_ages_14":"14","05_ages_15":"15","05_ages_16":"16","05_ages_17":"17","05_ages_18":"18","06":"Yes","06_ages_17":"17","07":"Yes","07_ages_1":"1","07_ages_2":"2","07_ages_3":"3","07_ages_4":"4","07_ages_5":"5","07_ages_6":"6","07_ages_7":"7","07_ages_8":"8","07_ages_9":"9","07_ages_10":"10","07_ages_11":"11","07_ages_12":"12","07_ages_13":"13","07_ages_14":"14","07_ages_15":"15","07_ages_16":"16","07_ages_17":"17","07_ages_18":"18","08":"Yes","08_ages_1":"1","08_ages_2":"2","08_ages_3":"3","08_ages_4":"4","08_ages_5":"5","08_ages_6":"6","08_ages_7":"7","08_ages_8":"8","08_ages_9":"9","08_ages_10":"10","08_ages_11":"11","08_ages_12":"12","08_ages_13":"13","08_ages_14":"14","08_ages_15":"15","08_ages_16":"16","08_ages_17":"17","08_ages_18":"18"},"rt":109141.70000000298,"item_order":[0,1,2,3,4,5,6,7],"radio_events":[3735.6000000089407,5335.70000000298,9087.20000000298,11943.40000000596,26535.79999999702,49095.20000000298,68511.10000000894,75302.90000000596,91679],"checkbox_events":[16999.10000000894,17496.10000000894,18551.10000000894,19119.10000000894,19535.60000000894,20215.10000000894,21583.10000000894,27855.10000000894,28872.29999999702,29239.20000000298,29727.10000000894,30831.20000000298,31295.20000000298,32175.70000000298,32703.5,33151.5,33727.70000000298,34175.20000000298,34655.20000000298,35207.10000000894,41575.10000000894,42254.79999999702,43063.20000000298,43495.20000000298,43974.90000000596,51495.10000000894,52343,52743.5,53415.20000000298,53879.70000000298,54478.70000000298,54911,55383.10000000894,55919,56335.40000000596,56879,57391.5,60943.40000000596,61471.40000000596,62655.70000000298,63111,63527.40000000596,63927.10000000894,69742.60000000894,78111,78622.90000000596,79111,79575.29999999702,79983.29999999702,80415.40000000596,80830.70000000298,81295.79999999702,81694.70000000298,82135,82992.70000000298,83703,84560.79999999702,85039.40000000596,85503,85951.10000000894,86415.79999999702,86911.29999999702,94166.90000000596,94623,95127.10000000894,95862.5,96775.40000000596,97367.20000000298,97847.20000000298,98247.29999999702,98728.10000000894,99127.29999999702,104606.90000000596,105158.79999999702,105632.90000000596,106511.20000000298,107056,107463.20000000298,107855.29999999702,108270.90000000596],"key_events":[],"mouse_events":[3735.6000000089407,5335.70000000298,9087.20000000298,11943.40000000596,16999.10000000894,17496.10000000894,17999.29999999702,18551.10000000894,19119.10000000894,19535.60000000894,20215.10000000894,20623.60000000894,21583.10000000894,26535.79999999702,27855.10000000894,28271.60000000894,28872.29999999702,29239.20000000298,29727.10000000894,30175.5,30831.20000000298,31295.20000000298,32175.70000000298,32703.5,33151.5,33727.70000000298,34175.20000000298,34655.20000000298,35207.10000000894,41575.10000000894,42254.79999999702,43063.20000000298,43495.20000000298,43974.90000000596,49095.20000000298,50799.40000000596,51495.10000000894,51943,52343,52743.5,53415.20000000298,53879.70000000298,54478.70000000298,54911,55383.10000000894,55919,56335.40000000596,56879,57391.5,60943.40000000596,61471.40000000596,61943.20000000298,62655.70000000298,63111,63527.40000000596,63927.10000000894,68511.10000000894,69742.60000000894,75302.90000000596,78111,78622.90000000596,79111,79575.29999999702,79983.29999999702,80415.40000000596,80830.70000000298,81295.79999999702,81694.70000000298,82135,82639.10000000894,82992.70000000298,83703,84560.79999999702,85039.40000000596,85503,85951.10000000894,86415.79999999702,86911.29999999702,91679,94166.90000000596,94623,95127.10000000894,95518.40000000596,95862.5,96775.40000000596,97367.20000000298,97847.20000000298,98247.29999999702,98728.10000000894,99127.29999999702,104606.90000000596,105158.79999999702,105632.90000000596,106087.40000000596,106511.20000000298,107056,107463.20000000298,107855.29999999702,108270.90000000596,109135.90000000596],"honeypot":0,"survey":"mace","page":10,"trial_type":"survey-mace","trial_index":18,"time_elapsed":1365222,"internal_node_id":"0.0-18.0","task_version":"prescreen-v0.3","browser_interactions":0,"instructed":0},{"rt":12027.699999988079,"trial_type":"mental-health-alert","trial_index":19,"time_elapsed":1377252,"internal_node_id":"0.0-19.0","task_version":"prescreen-v0.3","interactions":"[]"}]