[{"view_history":[{"page_index":0,"viewing_time":2889},{"page_index":1,"viewing_time":5897.800000011921},{"page_index":2,"viewing_time":4552},{"page_index":3,"viewing_time":863.8999999761581}],"rt":14203,"trial_type":"instructions","trial_index":0,"time_elapsed":14215,"internal_node_id":"0.0-0.0","task_version":"prescreen-v0.3"},{"rt":12607.699999988079,"responses":{"age":"19","gender-categorical":"Female","gender-free-response":"","ethnicity":"Not Hispanic or Latino","race":["White"],"education":"Some college"},"trial_type":"survey-demo","trial_index":1,"time_elapsed":26825,"internal_node_id":"0.0-1.0","task_version":"prescreen-v0.3"},{"responses":{"Q09":"2","Q01":"3","Q02":"3","Q19":"1","Q11":"1","Q10":"2","Q21":"3","Q03":"1","Q13":"3","Q05":"1","Q08":"2","Q15":"3","Q20":"3","Q14":"3","Q12":"2","Q17":"2","Q07":"1","Q04":"2","Q16":"3","Q18":"3","Q06":"1"},"rt":109378.30000001192,"item_order":[8,0,1,18,10,9,20,2,12,4,7,14,19,13,11,16,6,3,15,17,5],"radio_events":[5557.400000035763,6493.300000011921,10982,12638.100000023842,21903.600000023842,22398.80000001192,26910.600000023842,29456,34199.30000001192,36584.60000002384,44481.19999998808,48626.60000002384,55529.69999998808,59754.60000002384,71267.40000003576,78021.19999998808,81373.10000002384,87358,96791.69999998808,102099.60000002384,104696.40000003576,108672.40000003576],"key_events":[],"mouse_events":[5557.400000035763,6493.300000011921,10502.100000023842,10982,12638.100000023842,20086.600000023842,21118.900000035763,21903.600000023842,22398.80000001192,26910.600000023842,29456,32904.19999998808,34199.30000001192,36584.60000002384,44481.19999998808,48626.60000002384,55529.69999998808,58082.80000001192,58755.30000001192,59371.60000002384,59754.60000002384,71267.40000003576,78021.19999998808,80437,81102.19999998808,81373.10000002384,86726.19999998808,87358,96342.90000003576,96791.69999998808,102099.60000002384,104696.40000003576,107895.90000003576,108360.5,108672.40000003576,109376.40000003576],"straightlining":0.42857142857142855,"zigzagging":0.45,"honeypot":0,"survey":"sns","trial_type":"survey-template","trial_index":2,"time_elapsed":136211,"internal_node_id":"0.0-2.0","task_version":"prescreen-v0.3","browser_interactions":0,"infrequency":0},{"responses":{"Q10":"1","Q08":"2","Q12":"0","Q11":"1","Q03":"3","Q09":"1","Q06":"2","Q01":"3","Q05":"2","Q07":"2","Q13":"0","Q02":"3","Q04":"3"},"rt":63846.5,"item_order":[9,7,11,10,2,8,5,0,4,6,12,1,3],"radio_events":[4268.5,17470.400000035763,25071.100000023842,26774.900000035763,32463,35505.69999998808,45283.69999998808,47705.80000001192,50049.90000003576,51809.40000003576,54420.30000001192,56146.19999998808,59482.19999998808,63117.10000002384],"key_events":[],"mouse_events":[4268.5,17470.400000035763,25071.100000023842,26774.900000035763,32463,35505.69999998808,45283.69999998808,47705.80000001192,50049.90000003576,51809.40000003576,54420.30000001192,56146.19999998808,59482.19999998808,62339.10000002384,63117.10000002384,63845.30000001192],"straightlining":0.3076923076923077,"zigzagging":0.5,"honeypot":0,"survey":"bisbas","trial_type":"survey-template","trial_index":3,"time_elapsed":200062,"internal_node_id":"0.0-3.0","task_version":"prescreen-v0.3","browser_interactions":0,"infrequency":0},{"responses":{"Q01":"2","Q02":"1","Q03":"2"},"rt":17852,"radio_events":[7439.699999988079,10657.299999952316,17219.099999964237],"key_events":[],"mouse_events":[6863.799999952316,7439.699999988079,10657.299999952316,17219.099999964237,17851.299999952316],"survey":"map","page":1,"trial_type":"survey-map","trial_index":4,"time_elapsed":217917,"internal_node_id":"0.0-4.0","task_version":"prescreen-v0.3","browser_interactions":0},{"responses":{"Q04":"3","Q05":"3","Q06":"3"},"rt":10705.300000011921,"radio_events":[2885.900000035763,6272.600000023842,9999.5],"key_events":[],"mouse_events":[2885.900000035763,6272.600000023842,8800.700000047684,9536.700000047684,9999.5,10704.700000047684],"survey":"map","page":2,"trial_type":"survey-map","trial_index":5,"time_elapsed":228624,"internal_node_id":"0.0-5.0","task_version":"prescreen-v0.3","browser_interactions":0},{"responses":{"Q07":"1","Q08":"3","Q09":"2"},"rt":18138.099999964237,"radio_events":[7295,10904.199999988079,16544.099999964237],"key_events":[],"mouse_events":[7295,10463.800000011921,10904.199999988079,15951.899999976158,16544.099999964237,18136.69999998808],"survey":"map","page":3,"trial_type":"survey-map","trial_index":6,"time_elapsed":246763,"internal_node_id":"0.0-6.0","task_version":"prescreen-v0.3","browser_interactions":0},{"responses":{"Q10":"1","Q11":"1","Q12":"0","Q13":"1","Q16":"0","Q14":"2","Q15":"1"},"rt":34218.40000003576,"radio_events":[3534.7000000476837,7382.600000023842,9255.300000011921,13193.200000047684,20271.100000023842,22383,31360.80000001192,33664.5],"key_events":[],"mouse_events":[3534.7000000476837,7382.600000023842,8467.700000047684,8817.600000023842,9255.300000011921,13193.200000047684,19719,20271.100000023842,22383,31360.80000001192,33664.5,34217.10000002384],"survey":"map","page":4,"trial_type":"survey-map","trial_index":7,"time_elapsed":280985,"internal_node_id":"0.0-7.0","task_version":"prescreen-v0.3","browser_interactions":0,"infrequency":0},{"view_history":[{"page_index":0,"viewing_time":1318},{"page_index":1,"viewing_time":3984}],"rt":5302.5,"trial_type":"instructions","trial_index":8,"time_elapsed":286288,"internal_node_id":"0.0-8.0","task_version":"prescreen-v0.3"},{"responses":{"01":"No","01_ages_12":"12","01_ages_13":"13","01_ages_14":"14","01_ages_15":"15","01_ages_16":"16","02":"No","02_ages_10":"10","02_ages_11":"11","02_ages_12":"12","02_ages_13":"13","02_ages_14":"14","02_ages_15":"15","02_ages_16":"16","02_ages_17":"17","02_ages_18":"18","03":"No","04":"No","04_ages_9":"9","04_ages_10":"10","04_ages_11":"11","04_ages_12":"12","05":"No","06":"No"},"rt":61441.89999997616,"item_order":[0,1,2,3,4,5],"radio_events":[2411.699999988079,15833.599999964237,27909.19999998808,29860.899999976158,48089.69999998808,49665.59999996424,51585.30000001192,53412.30000001192,55227],"checkbox_events":[7124.699999988079,8484.5,8996.300000011921,10348.399999976158,10645.399999976158,11164.5,11580.399999976158,12378.800000011921,12627.5,17521.30000001192,17962.30000001192,18298.399999976158,18570.30000001192,18866.30000001192,19161.099999964237,19482.30000001192,20170.80000001192,20746.30000001192,37362.30000001192,38793.59999996424,39178.59999996424,40436.80000001192],"key_events":[],"mouse_events":[0,2411.699999988079,7124.699999988079,8484.5,8996.300000011921,9492.099999964237,10348.399999976158,10645.399999976158,11164.5,11580.399999976158,12378.800000011921,12627.5,15833.599999964237,17521.30000001192,17962.30000001192,18298.399999976158,18570.30000001192,18866.30000001192,19161.099999964237,19482.30000001192,19817.099999964237,20170.80000001192,20746.30000001192,27909.19999998808,29860.899999976158,37362.30000001192,37731.09999996424,38793.59999996424,39178.59999996424,39530.69999998808,40436.80000001192,48089.69999998808,49665.59999996424,51585.30000001192,53412.30000001192,55227,61440.09999996424],"honeypot":0,"survey":"mace","page":1,"trial_type":"survey-mace","trial_index":9,"time_elapsed":347736,"internal_node_id":"0.0-9.0","task_version":"prescreen-v0.3","browser_interactions":0},{"responses":{"01":"No","02":"No","03":"No","04":"No","05":"No","06":"No","07":"No","08":"No"},"rt":15155.100000023842,"item_order":[0,1,2,3,4,5,6,7],"radio_events":[3132.699999988079,5676.699999988079,7572.699999988079,8897.800000011921,11685.800000011921,12669.5,14007.5,14624.5],"checkbox_events":[],"key_events":[],"mouse_events":[3132.699999988079,4588.5,5676.699999988079,7572.699999988079,8897.800000011921,11685.800000011921,12669.5,14007.5,14624.5,15152.600000023842],"honeypot":0,"survey":"mace","page":2,"trial_type":"survey-mace","trial_index":10,"time_elapsed":362894,"internal_node_id":"0.0-10.0","task_version":"prescreen-v0.3","browser_interactions":0},{"responses":{"01":"No","02":"No","03":"No","04":"No"},"rt":7892.900000035763,"item_order":[0,1,2,3],"radio_events":[4676.800000011921,5459.5,6091.5,6771.700000047684],"checkbox_events":[],"key_events":[],"mouse_events":[4676.800000011921,5459.5,6091.5,6771.700000047684,7211.300000011921,7891.200000047684],"honeypot":0,"survey":"mace","page":3,"trial_type":"survey-mace","trial_index":11,"time_elapsed":370788,"internal_node_id":"0.0-11.0","task_version":"prescreen-v0.3","browser_interactions":0},{"responses":{"01":"No","02":"No"},"rt":6863.800000011921,"item_order":[0,1],"radio_events":[2590.2000000476837,5526.200000047684],"checkbox_events":[],"key_events":[],"mouse_events":[2590.2000000476837,4566.100000023842,5526.200000047684,6863],"honeypot":0,"survey":"mace","page":4,"trial_type":"survey-mace","trial_index":12,"time_elapsed":377653,"internal_node_id":"0.0-12.0","task_version":"prescreen-v0.3","browser_interactions":0},{"responses":{"01":"No","02":"No","03":"No","04":"No","05":"No"},"rt":23378.100000023842,"item_order":[0,1,2,3,4],"radio_events":[8025.800000011921,8898.5,9674.5,10666.900000035763,11684.5],"checkbox_events":[],"key_events":[],"mouse_events":[8025.800000011921,8898.5,9674.5,10666.900000035763,11684.5,23376.400000035763],"honeypot":0,"survey":"mace","page":5,"trial_type":"survey-mace","trial_index":13,"time_elapsed":401034,"internal_node_id":"0.0-13.0","task_version":"prescreen-v0.3","browser_interactions":0},{"responses":{"01":"Yes","01_ages_14":"14","01_ages_15":"15","01_ages_16":"16","02":"Yes","02_ages_10":"10","02_ages_11":"11","02_ages_12":"12","02_ages_13":"13","02_ages_14":"14","02_ages_15":"15","02_ages_16":"16","02_ages_17":"17","02_ages_18":"18","03":"Yes","03_ages_14":"14","03_ages_15":"15","03_ages_16":"16","03_ages_17":"17","03_ages_18":"18","04":"Yes","04_ages_12":"12","04_ages_13":"13","04_ages_14":"14","04_ages_15":"15","04_ages_16":"16","04_ages_17":"17","04_ages_18":"18","05":"No"},"rt":37560.700000047684,"item_order":[0,1,2,3,4],"radio_events":[5576.400000035763,11041.200000047684,19370.900000035763,25282.600000023842,34916.700000047684],"checkbox_events":[8545.100000023842,9321.5,9657.200000047684,11961.200000047684,12433.200000047684,12801.100000023842,13154.300000011921,13674,14786,15402.300000011921,15817.900000035763,16130.5,21282.5,21938.80000001192,22194.80000001192,22483.80000001192,23762.600000023842,27714.80000001192,28268.700000047684,28661.600000023842,28919.100000023842,29164.700000047684,30433.400000035763,30972.5,32523.5,32779.5],"key_events":[],"mouse_events":[5576.400000035763,8545.100000023842,8849.300000011921,9321.5,9657.200000047684,11041.200000047684,11961.200000047684,12433.200000047684,12801.100000023842,13154.300000011921,13674,13994.200000047684,14473.200000047684,14786,15107.300000011921,15402.300000011921,15817.900000035763,16130.5,19370.900000035763,20452.200000047684,21282.5,21524,21938.80000001192,22194.80000001192,22483.80000001192,23762.600000023842,25282.600000023842,27714.80000001192,28268.700000047684,28661.600000023842,28919.100000023842,29164.700000047684,29435.700000047684,30049.700000047684,30433.400000035763,30972.5,32523.5,32779.5,34916.700000047684,37558.700000047684],"honeypot":0,"survey":"mace","page":6,"trial_type":"survey-mace","trial_index":14,"time_elapsed":438597,"internal_node_id":"0.0-14.0","task_version":"prescreen-v0.3","browser_interactions":0},{"responses":{"01":"No","02":"Yes","02_ages_14":"14","02_ages_15":"15","02_ages_16":"16","02_ages_17":"17","02_ages_18":"18","03":"Yes","03_ages_15":"15","03_ages_16":"16","03_ages_17":"17","03_ages_18":"18","04":"Yes","04_ages_14":"14","04_ages_15":"15","04_ages_16":"16","05":"No","06":"No","07":"No"},"rt":36665.89999997616,"item_order":[0,1,2,3,4,5,6],"radio_events":[4509.600000023842,5358.399999976158,13586.399999976158,21188.100000023842,32152.899999976158,33838,35005.89999997616],"checkbox_events":[9231.300000011921,9542.600000023842,9838.600000023842,10119.699999988079,10743.600000023842,15177.300000011921,15927.199999988079,16149.699999988079,17506.899999976158,22205.80000001192,22494.100000023842,22775.69999998808,23055.100000023842,23366.399999976158,24758.30000001192,25086.19999998808],"key_events":[],"mouse_events":[3366.800000011921,4509.600000023842,5358.399999976158,9231.300000011921,9542.600000023842,9838.600000023842,10119.699999988079,10359.5,10743.600000023842,13586.399999976158,14370.399999976158,15177.300000011921,15927.199999988079,16149.699999988079,17506.899999976158,21188.100000023842,22205.80000001192,22494.100000023842,22775.69999998808,23055.100000023842,23366.399999976158,24758.30000001192,25086.19999998808,32152.899999976158,33838,35005.89999997616,36663.69999998808],"honeypot":0,"survey":"mace","page":7,"trial_type":"survey-mace","trial_index":15,"time_elapsed":475268,"internal_node_id":"0.0-15.0","task_version":"prescreen-v0.3","browser_interactions":0},{"responses":{"01":"No","02":"No","03":"No","04":"No"},"rt":14404.800000011921,"item_order":[0,1,2,3],"radio_events":[6220.699999988079,8444.399999976158,11143.699999988079,13699.600000023842],"checkbox_events":[],"key_events":[],"mouse_events":[6220.699999988079,8444.399999976158,11143.699999988079,12643.5,13075.399999976158,13699.600000023842,14403.399999976158],"honeypot":0,"survey":"mace","page":8,"trial_type":"survey-mace","trial_index":16,"time_elapsed":489674,"internal_node_id":"0.0-16.0","task_version":"prescreen-v0.3","browser_interactions":0},{"responses":{"01":"Yes","01_ages_1":"1","01_ages_2":"2","01_ages_3":"3","01_ages_4":"4","01_ages_5":"5","01_ages_6":"6","01_ages_7":"7","01_ages_8":"8","01_ages_9":"9","01_ages_10":"10","01_ages_11":"11","01_ages_12":"12","01_ages_13":"13","01_ages_14":"14","01_ages_15":"15","01_ages_16":"16","01_ages_17":"17","01_ages_18":"18","02":"Yes","02_ages_1":"1","02_ages_2":"2","02_ages_3":"3","02_ages_4":"4","02_ages_5":"5","02_ages_6":"6","02_ages_7":"7","02_ages_8":"8","02_ages_9":"9","02_ages_10":"10","02_ages_11":"11","02_ages_12":"12","02_ages_13":"13","02_ages_14":"14","02_ages_15":"15","02_ages_16":"16","02_ages_17":"17","02_ages_18":"18","03":"Yes","03_ages_1":"1","03_ages_2":"2","03_ages_3":"3","03_ages_4":"4","03_ages_5":"5","03_ages_6":"6","03_ages_7":"7","03_ages_8":"8","03_ages_9":"9","03_ages_10":"10","03_ages_11":"11","03_ages_12":"12","03_ages_13":"13","03_ages_14":"14","03_ages_15":"15","03_ages_16":"16","03_ages_17":"17","03_ages_18":"18","04":"Yes","04_ages_1":"1","04_ages_2":"2","04_ages_3":"3","04_ages_4":"4","04_ages_5":"5","04_ages_6":"6","04_ages_7":"7","04_ages_8":"8","04_ages_9":"9","04_ages_10":"10","04_ages_11":"11","04_ages_12":"12","04_ages_13":"13","04_ages_14":"14","04_ages_15":"15","04_ages_16":"16","04_ages_17":"17","04_ages_18":"18"},"rt":49432.30000001192,"item_order":[0,1,2,3],"radio_events":[3414.100000023842,15026.600000023842,26874.30000001192,38312.89999997616],"checkbox_events":[5245.699999988079,5558.600000023842,7622.5,7922.5,8402.899999976158,8675.100000023842,9067,9338.899999976158,9659.699999988079,10193.699999988079,10730.800000011921,11226.699999988079,11531.600000023842,11866.899999976158,12243.600000023842,12500.100000023842,12778.699999988079,13042.5,16114.699999988079,16458.399999976158,16803.5,17119.600000023842,17998.19999998808,18511.5,18919.399999976158,20061.399999976158,20989.600000023842,21342.30000001192,21678.600000023842,21982.19999998808,22277.399999976158,23421.399999976158,23813.600000023842,24452.100000023842,24741.30000001192,25132.399999976158,27842.80000001192,28177.19999998808,28496,28865.899999976158,29688.100000023842,30041.19999998808,30329,30665.100000023842,31376.19999998808,31681.19999998808,31985.19999998808,32319.100000023842,32655.399999976158,32959.10000002384,33640.5,33962.60000002384,34302.69999998808,34717.10000002384,39802,40187,41657.80000001192,41971,42563.69999998808,42987.69999998808,43347.89999997616,43660.69999998808,44411.69999998808,44686.19999998808,44972.89999997616,45579.69999998808,45868.69999998808,46309.5,46900.80000001192,47253.80000001192,48237.5,48828.60000002384],"key_events":[],"mouse_events":[2509.899999976158,3414.100000023842,5245.699999988079,5558.600000023842,5813.899999976158,6910.800000011921,7622.5,7922.5,8402.899999976158,8675.100000023842,9067,9338.899999976158,9659.699999988079,9914.5,10193.699999988079,10730.800000011921,11226.699999988079,11531.600000023842,11866.899999976158,12243.600000023842,12500.100000023842,12778.699999988079,13042.5,15026.600000023842,16114.699999988079,16458.399999976158,16803.5,17119.600000023842,17472.5,17998.19999998808,18511.5,18919.399999976158,19215.5,19590.30000001192,20061.399999976158,20381.19999998808,20989.600000023842,21342.30000001192,21678.600000023842,21982.19999998808,22277.399999976158,22550.30000001192,22877.399999976158,23421.399999976158,23813.600000023842,24149.5,24452.100000023842,24741.30000001192,25132.399999976158,26874.30000001192,27842.80000001192,28177.19999998808,28496,28865.899999976158,29288.80000001192,29688.100000023842,30041.19999998808,30329,30665.100000023842,31016.100000023842,31376.19999998808,31681.19999998808,31985.19999998808,32319.100000023842,32655.399999976158,32959.10000002384,33367.80000001192,33640.5,33962.60000002384,34302.69999998808,34717.10000002384,38312.89999997616,39802,40187,40571.30000001192,41226,41657.80000001192,41971,42267.30000001192,42563.69999998808,42987.69999998808,43347.89999997616,43660.69999998808,44012.69999998808,44411.69999998808,44686.19999998808,44972.89999997616,45260.60000002384,45579.69999998808,45868.69999998808,46309.5,46620.69999998808,46900.80000001192,47253.80000001192,47613.69999998808,48237.5,48502.10000002384,48828.60000002384,49430.69999998808],"honeypot":0,"survey":"mace","page":9,"trial_type":"survey-mace","trial_index":17,"time_elapsed":539110,"internal_node_id":"0.0-17.0","task_version":"prescreen-v0.3","browser_interactions":0},{"responses":{"01":"No","02":"No","03":"No","04":"No","05":"No","06":"Yes","06_ages_17":"17","07":"Yes","07_ages_1":"1","07_ages_2":"2","07_ages_3":"3","07_ages_4":"4","07_ages_5":"5","07_ages_6":"6","07_ages_7":"7","07_ages_8":"8","07_ages_9":"9","07_ages_10":"10","07_ages_11":"11","07_ages_12":"12","07_ages_13":"13","07_ages_14":"14","07_ages_15":"15","07_ages_16":"16","07_ages_17":"17","07_ages_18":"18","08":"Yes","08_ages_1":"1","08_ages_2":"2","08_ages_3":"3","08_ages_4":"4","08_ages_5":"5","08_ages_6":"6","08_ages_7":"7","08_ages_8":"8","08_ages_9":"9","08_ages_10":"10","08_ages_11":"11","08_ages_12":"12","08_ages_13":"13","08_ages_14":"14","08_ages_15":"15","08_ages_16":"16","08_ages_17":"17","08_ages_18":"18"},"rt":33521.30000001192,"item_order":[0,1,2,3,4,5,6,7],"radio_events":[2594.7000000476837,3426.100000023842,4714.300000011921,6431.200000047684,8102.800000011921,9326.200000047684,12185.900000035763,22306.30000001192],"checkbox_events":[10506.900000035763,14201.900000035763,14506.800000011921,15402.900000035763,16411,16739,17290.600000023842,17564.100000023842,17826.80000001192,18138.5,18417.600000023842,18714.700000047684,19058.80000001192,19386.700000047684,19683.30000001192,19995.700000047684,20274.700000047684,20570.600000023842,21170.700000047684,23402.80000001192,23827.600000023842,24156.5,24419.600000023842,25259.5,25562.5,25899.600000023842,26449.400000035763,26730.100000023842,27273.400000035763,28225.5,28537.400000035763,28873.600000023842,29449.30000001192,30393.200000047684,31033.200000047684,31747.400000035763,32843.40000003576],"key_events":[],"mouse_events":[2594.7000000476837,3426.100000023842,4714.300000011921,6431.200000047684,7207,8102.800000011921,9326.200000047684,10506.900000035763,12185.900000035763,14201.900000035763,14506.800000011921,14787.5,15402.900000035763,15691.200000047684,16411,16739,17290.600000023842,17564.100000023842,17826.80000001192,18138.5,18417.600000023842,18714.700000047684,19058.80000001192,19386.700000047684,19683.30000001192,19995.700000047684,20274.700000047684,20570.600000023842,20867,21170.700000047684,22306.30000001192,23402.80000001192,23827.600000023842,24156.5,24419.600000023842,24706.30000001192,25259.5,25562.5,25899.600000023842,26449.400000035763,26730.100000023842,27273.400000035763,27578.600000023842,28225.5,28537.400000035763,28873.600000023842,29449.30000001192,29731.400000035763,30393.200000047684,31033.200000047684,31487.5,31747.400000035763,32228.400000035763,32843.40000003576,33518.90000003576],"honeypot":0,"survey":"mace","page":10,"trial_type":"survey-mace","trial_index":18,"time_elapsed":572633,"internal_node_id":"0.0-18.0","task_version":"prescreen-v0.3","browser_interactions":0,"instructed":0},{"rt":3181.800000011921,"trial_type":"mental-health-alert","trial_index":19,"time_elapsed":575816,"internal_node_id":"0.0-19.0","task_version":"prescreen-v0.3","interactions":"[]"}]