[{"view_history":[{"page_index":0,"viewing_time":2047},{"page_index":1,"viewing_time":2083.300000190735},{"page_index":2,"viewing_time":1249.6999998092651},{"page_index":3,"viewing_time":1070}],"rt":6450.5,"trial_type":"instructions","trial_index":0,"time_elapsed":6465,"internal_node_id":"0.0-0.0","task_version":"prescreen-v0.3"},{"rt":21003,"responses":{"age":"31","gender-categorical":"Female","gender-free-response":"","ethnicity":"Not Hispanic or Latino","race":["White"],"education":"Bachelor degree"},"trial_type":"survey-demo","trial_index":1,"time_elapsed":27472,"internal_node_id":"0.0-1.0","task_version":"prescreen-v0.3"},{"responses":{"Q20":"0","Q16":"2","Q18":"3","Q11":"2","Q15":"2","Q01":"0","Q05":"0","Q19":"0","Q08":"1","Q12":"0","Q02":"0","Q13":"1","Q14":"0","Q07":"0","Q03":"0","Q17":"0","Q06":"0","Q10":"0","Q21":"3","Q09":"0","Q04":"0"},"rt":173475.80000019073,"item_order":[19,15,17,10,14,0,4,18,7,11,1,12,13,6,2,16,5,9,20,8,3],"radio_events":[52555.2000002861,59275.40000009537,64303.90000009537,67080,87230.40000009537,91470.09999990463,95351.80000019073,126039.40000009537,130660.90000009537,136293.40000009537,138238.30000019073,139891.80000019073,141769.40000009537,145287,151020.59999990463,154199,155371.80000019073,160980.59999990463,162677.2000002861,166064.5,169208.09999990463,171915.59999990463],"key_events":[],"mouse_events":[52555.2000002861,59275.40000009537,64303.90000009537,67080,87230.40000009537,90273.2000002861,91470.09999990463,95351.80000019073,126039.40000009537,130660.90000009537,136293.40000009537,138238.30000019073,139891.80000019073,141769.40000009537,145287,149906.2000002861,151020.59999990463,152427.80000019073,154199,155371.80000019073,156964.80000019073,160980.59999990463,162677.2000002861,166064.5,169208.09999990463,171915.59999990463,173474.40000009537],"straightlining":0.6666666666666666,"zigzagging":0.4,"honeypot":0,"survey":"sns","trial_type":"survey-template","trial_index":2,"time_elapsed":200951,"internal_node_id":"0.0-2.0","task_version":"prescreen-v0.3","browser_interactions":0,"infrequency":0},{"responses":{"Q09":"3","Q06":"3","Q08":"3","Q02":"2","Q07":"3","Q11":"3","Q01":"2","Q12":"3","Q13":"0","Q03":"3","Q04":"3","Q05":"3","Q10":"3"},"rt":60154.40000009537,"item_order":[8,5,7,1,6,10,0,11,12,2,3,4,9],"radio_events":[10397.5,12697.700000286102,18856,22204.800000190735,24837.200000286102,29977.800000190735,31447.300000190735,36305,43180.800000190735,45520.300000190735,49858.2000002861,54427.40000009537,58512.60000038147],"key_events":[],"mouse_events":[8645,10397.5,12697.700000286102,18856,22204.800000190735,24837.200000286102,29200.800000190735,29977.800000190735,31447.300000190735,36305,38339.300000190735,43180.800000190735,45520.300000190735,49858.2000002861,52728,53602.10000038147,54427.40000009537,55340.5,58512.60000038147,60153.7000002861],"straightlining":0.7692307692307693,"zigzagging":0.5,"honeypot":0,"survey":"bisbas","trial_type":"survey-template","trial_index":3,"time_elapsed":261108,"internal_node_id":"0.0-3.0","task_version":"prescreen-v0.3","browser_interactions":0,"infrequency":0},{"responses":{"Q01":"4","Q02":"4","Q03":"4"},"rt":22685.599999904633,"radio_events":[10238.299999713898,18855.199999809265,21399.099999904633],"key_events":[],"mouse_events":[8510.599999904633,10238.299999713898,18855.199999809265,20432.299999713898,21399.099999904633,22685.099999904633],"survey":"map","page":1,"trial_type":"survey-map","trial_index":4,"time_elapsed":283795,"internal_node_id":"0.0-4.0","task_version":"prescreen-v0.3","browser_interactions":0},{"responses":{"Q04":"2","Q05":"2","Q06":"2"},"rt":46466.300000190735,"radio_events":[33689,41823.5,43961.90000009537],"key_events":[],"mouse_events":[33689,41148.09999990463,41823.5,43961.90000009537,46465.90000009537],"survey":"map","page":2,"trial_type":"survey-map","trial_index":5,"time_elapsed":330263,"internal_node_id":"0.0-5.0","task_version":"prescreen-v0.3","browser_interactions":0},{"responses":{"Q07":"1","Q08":"4","Q09":"2"},"rt":13111.299999713898,"radio_events":[8806.900000095367,10118,12112.199999809265],"key_events":[],"mouse_events":[5638.400000095367,7520.299999713898,8806.900000095367,10118,11515.599999904633,12112.199999809265,13110.900000095367],"survey":"map","page":3,"trial_type":"survey-map","trial_index":6,"time_elapsed":343375,"internal_node_id":"0.0-6.0","task_version":"prescreen-v0.3","browser_interactions":0},{"responses":{"Q10":"1","Q11":"1","Q12":"1","Q13":"2","Q16":"0","Q14":"2","Q15":"0"},"rt":51692.800000190735,"radio_events":[23579.5,26750.5,28645.5,32580.200000286102,37516.300000190735,46731.300000190735,49596.60000038147],"key_events":[],"mouse_events":[22891.200000286102,23579.5,26210.300000190735,26750.5,28645.5,31734.300000190735,32580.200000286102,37516.300000190735,46731.300000190735,49596.60000038147,51692.10000038147],"survey":"map","page":4,"trial_type":"survey-map","trial_index":7,"time_elapsed":395070,"internal_node_id":"0.0-7.0","task_version":"prescreen-v0.3","browser_interactions":0,"infrequency":0},{"view_history":[{"page_index":0,"viewing_time":2166},{"page_index":1,"viewing_time":3339.5999999046326}],"rt":5506.099999904633,"trial_type":"instructions","trial_index":8,"time_elapsed":400576,"internal_node_id":"0.0-8.0","task_version":"prescreen-v0.3"},{"responses":{"01":"Yes","01_ages_5":"5","01_ages_6":"6","01_ages_7":"7","01_ages_8":"8","01_ages_9":"9","01_ages_10":"10","01_ages_11":"11","01_ages_12":"12","01_ages_13":"13","01_ages_14":"14","01_ages_15":"15","01_ages_16":"16","01_ages_17":"17","01_ages_18":"18","02":"Yes","02_ages_14":"14","02_ages_15":"15","02_ages_16":"16","02_ages_17":"17","02_ages_18":"18","03":"Yes","03_ages_11":"11","03_ages_12":"12","03_ages_13":"13","03_ages_14":"14","03_ages_15":"15","03_ages_16":"16","03_ages_17":"17","03_ages_18":"18","04":"No","05":"No","06":"Yes","06_ages_9":"9","06_ages_10":"10","06_ages_11":"11","06_ages_12":"12","06_ages_13":"13","06_ages_14":"14","06_ages_15":"15","06_ages_16":"16","06_ages_17":"17","06_ages_18":"18"},"rt":107687.09999990463,"item_order":[0,1,2,3,4,5],"radio_events":[4821.599999904633,51418.2999997139,61241.90000009537,85111,91653.5,93510.69999980927],"checkbox_events":[14887.5,15952.699999809265,17082.799999713898,18060.699999809265,19266.099999904633,20090.400000095367,20822.900000095367,21995.799999713898,22979.5,24039.099999904633,40205.7999997139,41115.699999809265,41827,42345.59999990463,55883.09999990463,56518.199999809265,57367.699999809265,58128.2999997139,58640.2999997139,65926.5,66694.19999980927,69467.40000009537,71504.7999997139,72382.5,74927.90000009537,75866.40000009537,76520.09999990463,95778.5,96375.59999990463,97284.7999997139,98086.90000009537,99005.09999990463,99694,100563.09999990463,102062.40000009537,104480.5,106584.5],"key_events":[],"mouse_events":[0.09999990463256836,4821.599999904633,14887.5,15952.699999809265,17082.799999713898,18060.699999809265,19266.099999904633,20090.400000095367,20822.900000095367,21469.900000095367,21995.799999713898,22979.5,24039.099999904633,40205.7999997139,41115.699999809265,41827,42345.59999990463,50693.2999997139,51418.2999997139,55883.09999990463,56518.199999809265,57367.699999809265,58128.2999997139,58640.2999997139,61241.90000009537,65926.5,66694.19999980927,69467.40000009537,71504.7999997139,72382.5,74927.90000009537,75866.40000009537,76520.09999990463,85111,91653.5,93510.69999980927,94860.59999990463,95778.5,96375.59999990463,97284.7999997139,98086.90000009537,99005.09999990463,99694,100563.09999990463,102062.40000009537,103869.19999980927,104480.5,106584.5,107685.2999997139],"honeypot":0,"survey":"mace","page":1,"trial_type":"survey-mace","trial_index":9,"time_elapsed":508268,"internal_node_id":"0.0-9.0","task_version":"prescreen-v0.3","browser_interactions":0},{"responses":{"01":"Yes","01_ages_10":"10","01_ages_11":"11","01_ages_12":"12","01_ages_13":"13","01_ages_14":"14","01_ages_15":"15","01_ages_16":"16","01_ages_17":"17","02":"No","03":"Yes","03_ages_1":"1","03_ages_2":"2","03_ages_3":"3","03_ages_4":"4","03_ages_5":"5","03_ages_6":"6","03_ages_7":"7","03_ages_8":"8","03_ages_9":"9","03_ages_10":"10","03_ages_11":"11","03_ages_12":"12","03_ages_13":"13","03_ages_14":"14","03_ages_15":"15","03_ages_16":"16","03_ages_17":"17","04":"Yes","04_ages_5":"5","04_ages_6":"6","04_ages_7":"7","04_ages_8":"8","04_ages_9":"9","04_ages_10":"10","04_ages_11":"11","05":"Yes","05_ages_8":"8","05_ages_9":"9","05_ages_10":"10","05_ages_11":"11","05_ages_12":"12","05_ages_13":"13","06":"No","07":"No","08":"No"},"rt":94604.2000002861,"item_order":[0,1,2,3,4,5,6,7],"radio_events":[3536.7000002861023,16317.400000095367,17861.700000286102,28867.300000190735,69493.7000002861,89066.5,92042.60000038147,93361.2000002861],"checkbox_events":[5787.60000038147,6818.60000038147,7510.900000095367,8157.700000286102,8903.900000095367,10155.400000095367,11093.800000190735,12295.200000286102,19034.400000095367,19636.400000095367,20257.60000038147,20931.60000038147,22944.5,24130.400000095367,24877,25689,26556.5,27260.10000038147,32997.300000190735,33913.5,35157.40000009537,37266,38847.40000009537,40156.7000002861,40718.10000038147,42004.7000002861,42502.2000002861,43746,44507.2000002861,45899.2000002861,46624.300000190735,47683.7000002861,48217.60000038147,48850.300000190735,49297.90000009537,57913.300000190735,58595.300000190735,59312.5,59952,61944.7000002861,62876,63494.2000002861,64424.40000009537,65089.800000190735,73931.5,74506.60000038147,75172.90000009537,75792.30000019073,76357.40000009537,77675.90000009537,77848,81870.80000019073],"key_events":[],"mouse_events":[3536.7000002861023,5787.60000038147,6818.60000038147,7510.900000095367,8157.700000286102,8903.900000095367,10155.400000095367,11093.800000190735,12295.200000286102,16317.400000095367,17861.700000286102,19034.400000095367,19636.400000095367,20257.60000038147,20931.60000038147,22944.5,24130.400000095367,24877,25689,26556.5,27260.10000038147,28867.300000190735,32997.300000190735,33913.5,34574.90000009537,35157.40000009537,37266,38847.40000009537,40156.7000002861,40718.10000038147,42004.7000002861,42502.2000002861,42985.5,43746,44507.2000002861,45899.2000002861,46624.300000190735,47683.7000002861,48217.60000038147,48850.300000190735,49297.90000009537,57913.300000190735,58595.300000190735,59312.5,59952,61944.7000002861,62420.90000009537,62876,63494.2000002861,64424.40000009537,65089.800000190735,69493.7000002861,73931.5,74506.60000038147,75172.90000009537,75792.30000019073,76357.40000009537,77675.90000009537,77848,81870.80000019073,82553.5,89066.5,92042.60000038147,93361.2000002861,94601.5],"honeypot":0,"survey":"mace","page":2,"trial_type":"survey-mace","trial_index":10,"time_elapsed":602875,"internal_node_id":"0.0-10.0","task_version":"prescreen-v0.3","browser_interactions":0},{"responses":{"01":"Yes","01_ages_1":"1","01_ages_2":"2","01_ages_3":"3","01_ages_4":"4","01_ages_5":"5","01_ages_6":"6","01_ages_7":"7","01_ages_8":"8","01_ages_9":"9","01_ages_10":"10","01_ages_11":"11","01_ages_12":"12","02":"Yes","02_ages_7":"7","02_ages_8":"8","03":"No","04":"No"},"rt":32407.299999713898,"item_order":[0,1,2,3],"radio_events":[4186.099999904633,24010.5,30644.199999809265,31531.900000095367],"checkbox_events":[10732.199999809265,11941.799999713898,12517.799999713898,13583.199999809265,14480.699999809265,16099.900000095367,16690,17473.599999904633,18254.199999809265,19164,19647.099999904633,19817.599999904633,20445.299999713898,21004.900000095367,27480.099999904633,28056.099999904633],"key_events":[],"mouse_events":[4186.099999904633,10732.199999809265,11415.199999809265,11941.799999713898,12517.799999713898,13583.199999809265,14480.699999809265,16099.900000095367,16690,17473.599999904633,18254.199999809265,19164,19647.099999904633,19817.599999904633,20445.299999713898,21004.900000095367,24010.5,27480.099999904633,28056.099999904633,29997.599999904633,30644.199999809265,31531.900000095367,32406.099999904633],"honeypot":0,"survey":"mace","page":3,"trial_type":"survey-mace","trial_index":11,"time_elapsed":635285,"internal_node_id":"0.0-11.0","task_version":"prescreen-v0.3","browser_interactions":0},{"responses":{"01":"No","02":"No"},"rt":7828.300000190735,"item_order":[0,1],"radio_events":[6118.5,7070.700000286102],"checkbox_events":[],"key_events":[],"mouse_events":[4402.599999904633,6118.5,7070.700000286102,7827.700000286102],"honeypot":0,"survey":"mace","page":4,"trial_type":"survey-mace","trial_index":12,"time_elapsed":643114,"internal_node_id":"0.0-12.0","task_version":"prescreen-v0.3","browser_interactions":0},{"responses":{"01":"Yes","01_ages_11":"11","01_ages_12":"12","01_ages_13":"13","01_ages_14":"14","01_ages_15":"15","01_ages_16":"16","01_ages_17":"17","01_ages_18":"18","02":"No","03":"No","04":"No","05":"No"},"rt":24263.900000095367,"item_order":[0,1,2,3,4],"radio_events":[3540.199999809265,17610.300000190735,20125.900000095367,22024,23417.400000095367],"checkbox_events":[6036.5,6758.599999904633,7461.400000095367,8211.400000095367,8716.699999809265,9902.300000190735,10634.5,11715],"key_events":[],"mouse_events":[3540.199999809265,6036.5,6758.599999904633,7461.400000095367,8211.400000095367,8716.699999809265,9902.300000190735,10634.5,11715,17610.300000190735,20125.900000095367,22024,22862.900000095367,23417.400000095367,24262.5],"honeypot":0,"survey":"mace","page":5,"trial_type":"survey-mace","trial_index":13,"time_elapsed":667381,"internal_node_id":"0.0-13.0","task_version":"prescreen-v0.3","browser_interactions":0},{"responses":{"01":"Yes","01_ages_6":"6","01_ages_7":"7","01_ages_8":"8","01_ages_9":"9","01_ages_10":"10","01_ages_11":"11","01_ages_12":"12","01_ages_13":"13","01_ages_14":"14","01_ages_15":"15","01_ages_16":"16","01_ages_17":"17","01_ages_18":"18","02":"Yes","02_ages_11":"11","02_ages_12":"12","02_ages_13":"13","02_ages_14":"14","02_ages_15":"15","02_ages_16":"16","02_ages_17":"17","02_ages_18":"18","03":"No","04":"No","05":"No"},"rt":41710.7999997139,"item_order":[0,1,2,3,4],"radio_events":[7184.5,23085.199999809265,36826.59999990463,38440.199999809265,40728],"checkbox_events":[9799.699999809265,10458.900000095367,11019.799999713898,11583.5,12522.599999904633,13197.199999809265,13787.699999809265,14334.5,14945.699999809265,16502.900000095367,17164.299999713898,17783.099999904633,19339.599999904633,25094.099999904633,25757.900000095367,27570.699999809265,28302.799999713898,29504.599999904633,29974.099999904633,30840.699999809265,32127.199999809265],"key_events":[],"mouse_events":[7184.5,9799.699999809265,10458.900000095367,11019.799999713898,11583.5,12089,12522.599999904633,13197.199999809265,13787.699999809265,14334.5,14945.699999809265,15719.900000095367,16502.900000095367,17164.299999713898,17783.099999904633,18849.199999809265,19339.599999904633,23085.199999809265,25094.099999904633,25757.900000095367,26369.400000095367,27570.699999809265,28302.799999713898,28893.400000095367,29504.599999904633,29974.099999904633,30840.699999809265,32127.199999809265,36826.59999990463,38440.199999809265,40728,41709.40000009537],"honeypot":0,"survey":"mace","page":6,"trial_type":"survey-mace","trial_index":14,"time_elapsed":709095,"internal_node_id":"0.0-14.0","task_version":"prescreen-v0.3","browser_interactions":0},{"responses":{"01":"No","02":"No","03":"No","04":"No","05":"No","06":"No","07":"No"},"rt":16843,"item_order":[0,1,2,3,4,5,6],"radio_events":[3096.2999997138977,4198.299999713898,9721.5,10976.199999809265,12329.799999713898,15194.39999961853,16005.39999961853],"checkbox_events":[],"key_events":[],"mouse_events":[3096.2999997138977,4198.299999713898,8739.89999961853,9721.5,10976.199999809265,12329.799999713898,15194.39999961853,16005.39999961853,16840.699999809265],"honeypot":0,"survey":"mace","page":7,"trial_type":"survey-mace","trial_index":15,"time_elapsed":725941,"internal_node_id":"0.0-15.0","task_version":"prescreen-v0.3","browser_interactions":0},{"responses":{"01":"No","02":"No","03":"Yes","03_ages_8":"8","03_ages_9":"9","03_ages_10":"10","03_ages_11":"11","03_ages_12":"12","03_ages_13":"13","03_ages_14":"14","03_ages_15":"15","03_ages_16":"16","03_ages_17":"17","03_ages_18":"18","04":"No"},"rt":34888.09999990463,"item_order":[0,1,2,3],"radio_events":[7363.599999904633,15289.200000286102,19279.099999904633,34044.90000009537],"checkbox_events":[23294.300000190735,24140.400000095367,24880.900000095367,25583.5,26287.400000095367,27427,28027.800000190735,28745.5,29420.900000095367,30285.300000190735,31389.700000286102],"key_events":[],"mouse_events":[7363.599999904633,14118.5,15289.200000286102,18051.099999904633,18860.099999904633,19279.099999904633,23294.300000190735,24140.400000095367,24880.900000095367,25583.5,26287.400000095367,27427,28027.800000190735,28745.5,29420.900000095367,30285.300000190735,31389.700000286102,34044.90000009537,34886.90000009537],"honeypot":0,"survey":"mace","page":8,"trial_type":"survey-mace","trial_index":16,"time_elapsed":760831,"internal_node_id":"0.0-16.0","task_version":"prescreen-v0.3","browser_interactions":0},{"responses":{"01":"Yes","01_ages_1":"1","01_ages_2":"2","01_ages_3":"3","01_ages_4":"4","01_ages_5":"5","01_ages_6":"6","01_ages_7":"7","01_ages_8":"8","01_ages_9":"9","01_ages_10":"10","02":"Yes","02_ages_1":"1","02_ages_2":"2","02_ages_3":"3","02_ages_4":"4","02_ages_5":"5","02_ages_6":"6","02_ages_7":"7","02_ages_8":"8","02_ages_9":"9","02_ages_10":"10","03":"Yes","03_ages_1":"1","03_ages_2":"2","03_ages_3":"3","03_ages_4":"4","03_ages_5":"5","03_ages_6":"6","03_ages_7":"7","03_ages_8":"8","03_ages_9":"9","03_ages_10":"10","03_ages_11":"11","03_ages_12":"12","03_ages_13":"13","03_ages_14":"14","03_ages_15":"15","03_ages_16":"16","03_ages_17":"17","03_ages_18":"18","04":"Yes","04_ages_1":"1","04_ages_2":"2","04_ages_3":"3","04_ages_4":"4","04_ages_5":"5","04_ages_6":"6","04_ages_7":"7","04_ages_8":"8","04_ages_9":"9","04_ages_10":"10","04_ages_11":"11","04_ages_12":"12","04_ages_13":"13","04_ages_14":"14","04_ages_15":"15","04_ages_16":"16","04_ages_17":"17","04_ages_18":"18"},"rt":72111,"item_order":[0,1,2,3],"radio_events":[3809.6000003814697,19616.10000038147,34174.800000190735,53052.60000038147],"checkbox_events":[8007.400000095367,9394.5,10311,10794.400000095367,11284.800000190735,12250.400000095367,13167.900000095367,13993.700000286102,15151.900000095367,16586.400000095367,21457.400000095367,22679.60000038147,24429.300000190735,25147.200000286102,26043.5,26647,27436.400000095367,28382.700000286102,29143.300000190735,29732.200000286102,36008.300000190735,36647,37236.90000009537,37897.800000190735,38585.2000002861,39135.300000190735,39682.800000190735,40510.40000009537,41245.10000038147,42439.5,43211.5,44188.40000009537,44948.60000038147,45709.60000038147,46341.800000190735,47024.300000190735,47646.5,48950.60000038147,56073.60000038147,56571,57451.300000190735,58205,59477.10000038147,60131.60000038147,60792.7000002861,61786.60000038147,62655.10000038147,63319.40000009537,64140.7000002861,64901,65598.7000002861,66301.2000002861,67034,67922.30000019073,69063.80000019073,69891],"key_events":[],"mouse_events":[3052.9000000953674,3809.6000003814697,8007.400000095367,9394.5,10311,10794.400000095367,11284.800000190735,12250.400000095367,13167.900000095367,13993.700000286102,14462.400000095367,15151.900000095367,16586.400000095367,19616.10000038147,21457.400000095367,22679.60000038147,23277.60000038147,24429.300000190735,25147.200000286102,26043.5,26647,27436.400000095367,28382.700000286102,29143.300000190735,29732.200000286102,34174.800000190735,35438.7000002861,36008.300000190735,36647,37236.90000009537,37897.800000190735,38585.2000002861,39135.300000190735,39682.800000190735,40510.40000009537,41245.10000038147,42439.5,43211.5,44188.40000009537,44948.60000038147,45709.60000038147,46341.800000190735,47024.300000190735,47646.5,48950.60000038147,51964.2000002861,52172.10000038147,53052.60000038147,55127.2000002861,56073.60000038147,56571,57451.300000190735,58205,59477.10000038147,60131.60000038147,60792.7000002861,61786.60000038147,62655.10000038147,63319.40000009537,64140.7000002861,64901,65598.7000002861,66301.2000002861,67034,67922.30000019073,69063.80000019073,69891,72109.80000019073],"honeypot":0,"survey":"mace","page":9,"trial_type":"survey-mace","trial_index":17,"time_elapsed":832945,"internal_node_id":"0.0-17.0","task_version":"prescreen-v0.3","browser_interactions":0},{"responses":{"01":"No","02":"No","03":"Yes","03_ages_8":"8","03_ages_9":"9","03_ages_10":"10","03_ages_11":"11","03_ages_12":"12","03_ages_13":"13","03_ages_14":"14","03_ages_15":"15","03_ages_16":"16","03_ages_17":"17","03_ages_18":"18","04":"Yes","04_ages_14":"14","04_ages_15":"15","04_ages_16":"16","04_ages_17":"17","04_ages_18":"18","05":"No","06":"Yes","06_ages_17":"17","07":"Yes","07_ages_1":"1","07_ages_2":"2","07_ages_3":"3","07_ages_4":"4","07_ages_5":"5","07_ages_6":"6","07_ages_7":"7","07_ages_8":"8","07_ages_9":"9","07_ages_10":"10","07_ages_11":"11","07_ages_12":"12","07_ages_13":"13","07_ages_14":"14","07_ages_15":"15","07_ages_16":"16","07_ages_17":"17","07_ages_18":"18","08":"Yes","08_ages_1":"1","08_ages_2":"2","08_ages_3":"3","08_ages_4":"4","08_ages_5":"5","08_ages_6":"6","08_ages_7":"7","08_ages_8":"8","08_ages_9":"9","08_ages_10":"10","08_ages_11":"11","08_ages_12":"12","08_ages_13":"13","08_ages_14":"14","08_ages_15":"15","08_ages_16":"16","08_ages_17":"17","08_ages_18":"18"},"rt":73716.30000019073,"item_order":[0,1,2,3,4,5,6,7],"radio_events":[2118.699999809265,3413.0999999046326,5294.400000095367,16253.900000095367,24697.900000095367,29759.400000095367,35228,55384.59999990463],"checkbox_events":[7887.199999809265,8456.199999809265,9310.300000190735,9750.800000190735,10326.400000095367,11591.400000095367,12067.599999904633,12858.900000095367,13481.599999904633,14292.5,15117.199999809265,17639.699999809265,19275.099999904633,19829.699999809265,20692.800000190735,21605.800000190735,31406,38903.09999990463,39762.40000009537,40602.90000009537,41509.699999809265,42130.800000190735,42799.699999809265,43644.59999990463,44655,45138.199999809265,46062,46837,48051.699999809265,48848.09999990463,50089,50973.40000009537,51662.90000009537,52217.40000009537,52771.5,56977.59999990463,57443,57919.199999809265,58636.800000190735,60031,60757.09999990463,61436.5,62445.699999809265,62972.199999809265,63562.40000009537,64123.699999809265,64973.40000009537,65630.5,66462.30000019073,67174,68581.19999980927,69676.09999990463,70721.19999980927],"key_events":[],"mouse_events":[2118.699999809265,3413.0999999046326,5294.400000095367,7887.199999809265,8456.199999809265,9310.300000190735,9750.800000190735,10326.400000095367,10802.400000095367,11591.400000095367,12067.599999904633,12858.900000095367,13481.599999904633,14292.5,15117.199999809265,16253.900000095367,17639.699999809265,19275.099999904633,19829.699999809265,20692.800000190735,21605.800000190735,24697.900000095367,29759.400000095367,31406,35228,38903.09999990463,39762.40000009537,40602.90000009537,41509.699999809265,42130.800000190735,42799.699999809265,43644.59999990463,44192.59999990463,44655,45138.199999809265,46062,46837,48051.699999809265,48848.09999990463,50089,50973.40000009537,51662.90000009537,52217.40000009537,52771.5,55384.59999990463,56977.59999990463,57443,57919.199999809265,58636.800000190735,59312.199999809265,60031,60757.09999990463,61436.5,62445.699999809265,62972.199999809265,63562.40000009537,64123.699999809265,64973.40000009537,65630.5,66462.30000019073,67174,67806.69999980927,68581.19999980927,69676.09999990463,70721.19999980927,73714],"honeypot":0,"survey":"mace","page":10,"trial_type":"survey-mace","trial_index":18,"time_elapsed":906664,"internal_node_id":"0.0-18.0","task_version":"prescreen-v0.3","browser_interactions":0,"instructed":0},{"rt":6756.200000286102,"trial_type":"mental-health-alert","trial_index":19,"time_elapsed":913422,"internal_node_id":"0.0-19.0","task_version":"prescreen-v0.3","interactions":"[]"}]