[{"view_history":[{"page_index":0,"viewing_time":3510.10000000149},{"page_index":1,"viewing_time":4124},{"page_index":2,"viewing_time":2932.39999999851},{"page_index":3,"viewing_time":825.2999999970198}],"rt":11392.79999999702,"trial_type":"instructions","trial_index":0,"time_elapsed":11413,"internal_node_id":"0.0-0.0","task_version":"prescreen-v0.3"},{"rt":19263.29999999702,"responses":{"age":"19","gender-categorical":"Male","gender-free-response":"","ethnicity":"Not Hispanic or Latino","race":["White"],"education":"Some college","siblings":"2"},"trial_type":"survey-demo","trial_index":1,"time_elapsed":30682,"internal_node_id":"0.0-1.0","task_version":"prescreen-v0.3"},{"responses":{"Q20":"2","Q08":"3","Q06":"2","Q12":"2","Q15":"1","Q07":"1","Q19":"0","Q13":"1","Q02":"3","Q09":"1","Q05":"2","Q16":"0","Q14":"1","Q11":"1","Q10":"0","Q03":"1","Q17":"0","Q04":"2","Q01":"2","Q21":"3","Q18":"1"},"rt":100177.5,"item_order":[19,7,5,11,14,6,18,12,1,8,4,15,13,10,9,2,16,3,0,20,17],"radio_events":[9197.90000000596,10914.60000000149,16592,20792.30000000447,25765.10000000149,29702.5,36505.30000000447,44680.60000000149,45715.80000000447,49211,52451.5,55990.80000000447,60206.20000000298,65501.70000000298,67818.90000000596,71517,76946.80000000447,79436.5,86397.70000000298,90484.80000000447,94369.90000000596,99395.20000000298],"key_events":[],"mouse_events":[9197.90000000596,10914.60000000149,15872.30000000447,16592,20792.30000000447,25180.10000000149,25765.10000000149,29702.5,35733.60000000149,36152.90000000596,36505.30000000447,41988.10000000149,44680.60000000149,45715.80000000447,49211,52451.5,55990.80000000447,60206.20000000298,65501.70000000298,67818.90000000596,71517,76946.80000000447,79436.5,86075,86397.70000000298,88909.80000000447,90484.80000000447,93387.60000000149,94369.90000000596,99395.20000000298,100175.40000000596],"straightlining":0.38095238095238093,"zigzagging":0.55,"honeypot":0,"survey":"sns","trial_type":"survey-template","trial_index":2,"time_elapsed":130865,"internal_node_id":"0.0-2.0","task_version":"prescreen-v0.3","browser_interactions":0,"infrequency":0},{"responses":{"Q12":"2","Q06":"3","Q01":"2","Q11":"1","Q02":"1","Q10":"2","Q05":"3","Q08":"2","Q03":"2","Q04":"3","Q07":"2","Q13":"0","Q09":"3"},"rt":64826.29999999702,"item_order":[11,5,0,10,1,9,4,7,2,3,6,12,8],"radio_events":[12631,17386,18811.29999999702,26258.5,29049.20000000298,33954.60000000149,35897.20000000298,42699.20000000298,43689.39999999851,48039.39999999851,53266.89999999851,56364.70000000298,59095.29999999702,62334.89999999851,64322.20000000298],"key_events":[],"mouse_events":[300.29999999701977,12631,17386,18811.29999999702,24338.60000000149,26258.5,29049.20000000298,31751,33046.70000000298,33954.60000000149,35897.20000000298,41986.89999999851,42699.20000000298,43689.39999999851,48039.39999999851,53266.89999999851,56364.70000000298,59095.29999999702,61720.20000000298,62334.89999999851,63970.70000000298,64322.20000000298,64825],"straightlining":0.46153846153846156,"zigzagging":0.75,"honeypot":0,"survey":"bisbas","trial_type":"survey-template","trial_index":3,"time_elapsed":195696,"internal_node_id":"0.0-3.0","task_version":"prescreen-v0.3","browser_interactions":0,"infrequency":0},{"responses":{"Q01":"3","Q02":"2","Q03":"2"},"rt":20155.60000000149,"radio_events":[8837.60000000149,13112.30000000447,17470.10000000149,18513],"key_events":[],"mouse_events":[8837.60000000149,13112.30000000447,17470.10000000149,18513,20154.80000000447],"survey":"map","page":1,"trial_type":"survey-map","trial_index":4,"time_elapsed":215856,"internal_node_id":"0.0-4.0","task_version":"prescreen-v0.3","browser_interactions":0},{"responses":{"Q04":"3","Q05":"1","Q06":"1"},"rt":15290.29999999702,"radio_events":[4774.19999999553,11442.19999999553,14478.89999999851],"key_events":[],"mouse_events":[4774.19999999553,11442.19999999553,14478.89999999851,15289.69999999553],"survey":"map","page":2,"trial_type":"survey-map","trial_index":5,"time_elapsed":231149,"internal_node_id":"0.0-5.0","task_version":"prescreen-v0.3","browser_interactions":0},{"responses":{"Q07":"4","Q08":"0","Q09":"1"},"rt":24733,"radio_events":[13204.20000000298,18581.90000000596,22286.90000000596,23907],"key_events":[],"mouse_events":[12567,13204.20000000298,18581.90000000596,22286.90000000596,23441.80000000447,23907,24732.40000000596],"survey":"map","page":3,"trial_type":"survey-map","trial_index":6,"time_elapsed":255885,"internal_node_id":"0.0-6.0","task_version":"prescreen-v0.3","browser_interactions":0},{"responses":{"Q10":"1","Q11":"2","Q12":"4","Q13":"4","Q16":"0","Q14":"2","Q15":"1"},"rt":40686.20000000298,"radio_events":[4286.39999999851,9063.60000000149,14936.89999999851,24499.39999999851,28969.29999999702,33004.60000000149,39912.5],"key_events":[],"mouse_events":[4286.39999999851,8658.39999999851,9063.60000000149,13946,14396,14936.89999999851,24146.89999999851,24499.39999999851,28969.29999999702,33004.60000000149,39455.10000000149,39912.5,40685.20000000298],"survey":"map","page":4,"trial_type":"survey-map","trial_index":7,"time_elapsed":296575,"internal_node_id":"0.0-7.0","task_version":"prescreen-v0.3","browser_interactions":0,"infrequency":0},{"view_history":[{"page_index":0,"viewing_time":2456.0999999940395},{"page_index":1,"viewing_time":2917.2000000029802}],"rt":5374.5999999940395,"trial_type":"instructions","trial_index":8,"time_elapsed":301951,"internal_node_id":"0.0-8.0","task_version":"prescreen-v0.3"},{"responses":{"01":"No","02":"No","03":"No","04":"No","05":"No","06":"No"},"rt":24777.19999999553,"item_order":[0,1,2,3,4,5],"radio_events":[9255.29999999702,12788.19999999553,14865.5,17130.5,20476.19999999553,21352.69999999553],"checkbox_events":[],"key_events":[],"mouse_events":[0.19999999552965164,8895.79999999702,9255.29999999702,12788.19999999553,14865.5,17130.5,18143.39999999851,20040.69999999553,20476.19999999553,21352.69999999553,22817.10000000149,23701.79999999702,24774.29999999702],"honeypot":0,"survey":"mace","page":1,"trial_type":"survey-mace","trial_index":9,"time_elapsed":326737,"internal_node_id":"0.0-9.0","task_version":"prescreen-v0.3","browser_interactions":0},{"responses":{"01":"No","02":"No","03":"No","04":"No","05":"No","06":"No","07":"No","08":"No"},"rt":22054.10000000149,"item_order":[0,1,2,3,4,5,6,7],"radio_events":[2414.4000000059605,5646.70000000298,9351.70000000298,11421.5,13911.90000000596,16154.30000000447,18757.20000000298,20849.40000000596],"checkbox_events":[],"key_events":[],"mouse_events":[2414.4000000059605,4154.10000000149,5646.70000000298,8391.70000000298,9351.70000000298,11421.5,13911.90000000596,15134.30000000447,15839.80000000447,16154.30000000447,18757.20000000298,20849.40000000596,22050.30000000447],"honeypot":0,"survey":"mace","page":2,"trial_type":"survey-mace","trial_index":10,"time_elapsed":348796,"internal_node_id":"0.0-10.0","task_version":"prescreen-v0.3","browser_interactions":0},{"responses":{"01":"No","02":"No","03":"No","04":"No"},"rt":11723.20000000298,"item_order":[0,1,2,3],"radio_events":[4911.10000000149,7221.5,8556.5,10881.5],"checkbox_events":[],"key_events":[],"mouse_events":[4911.10000000149,7221.5,8143.39999999851,8556.5,10881.5,11338.80000000447,11721.30000000447],"honeypot":0,"survey":"mace","page":3,"trial_type":"survey-mace","trial_index":11,"time_elapsed":360523,"internal_node_id":"0.0-11.0","task_version":"prescreen-v0.3","browser_interactions":0},{"responses":{"01":"No","02":"No"},"rt":10151.29999999702,"item_order":[0,1],"radio_events":[6024.79999999702,9099.79999999702],"checkbox_events":[],"key_events":[],"mouse_events":[6024.79999999702,8679.89999999851,9099.79999999702,10150.19999999553],"honeypot":0,"survey":"mace","page":4,"trial_type":"survey-mace","trial_index":12,"time_elapsed":370678,"internal_node_id":"0.0-12.0","task_version":"prescreen-v0.3","browser_interactions":0},{"responses":{"01":"No","02":"No","03":"No","04":"No","05":"No"},"rt":17292.69999999553,"item_order":[0,1,2,3,4],"radio_events":[8553.19999999553,10690.09999999404,12625.5,15198,16188.09999999404],"checkbox_events":[],"key_events":[],"mouse_events":[8553.19999999553,10690.09999999404,12625.5,15198,16188.09999999404,17290.29999999702],"honeypot":0,"survey":"mace","page":5,"trial_type":"survey-mace","trial_index":13,"time_elapsed":387975,"internal_node_id":"0.0-13.0","task_version":"prescreen-v0.3","browser_interactions":0},{"responses":{"01":"No","02":"Yes","02_ages_13":"13","02_ages_14":"14","02_ages_15":"15","03":"Yes","03_ages_15":"15","03_ages_16":"16","04":"No","05":"No"},"rt":25602.09999999404,"item_order":[0,1,2,3,4],"radio_events":[8311.29999999702,9781.39999999851,17709.59999999404,23326.89999999851,25081.79999999702],"checkbox_events":[13254.5,13778.89999999851,14536.5,19629.29999999702,20131.59999999404],"key_events":[],"mouse_events":[7358.19999999553,8311.29999999702,9781.39999999851,13254.5,13778.89999999851,14297.19999999553,14536.5,16764.09999999404,17363.79999999702,17709.59999999404,19037.5,19629.29999999702,20131.59999999404,23326.89999999851,25081.79999999702,25599.79999999702],"honeypot":0,"survey":"mace","page":6,"trial_type":"survey-mace","trial_index":14,"time_elapsed":413581,"internal_node_id":"0.0-14.0","task_version":"prescreen-v0.3","browser_interactions":0},{"responses":{"01":"No","02":"Yes","02_ages_13":"13","02_ages_14":"14","02_ages_15":"15","03":"No","04":"No","05":"No","06":"No","07":"No"},"rt":28272.10000000149,"item_order":[0,1,2,3,4,5,6],"radio_events":[5385.29999999702,6772.89999999851,17461.60000000149,18083.19999999553,21593.5,25253.19999999553,26341.39999999851],"checkbox_events":[8798.29999999702,9202.69999999553,9435.19999999553,10853.60000000149,11452.79999999702,11873.19999999553,12772.60000000149],"key_events":[],"mouse_events":[5385.29999999702,6772.89999999851,8798.29999999702,9202.69999999553,9435.19999999553,10853.60000000149,11452.79999999702,11873.19999999553,12308.19999999553,12772.60000000149,13717.89999999851,17461.60000000149,18083.19999999553,19065.39999999851,20978.69999999553,21593.5,25253.19999999553,26341.39999999851,28268.89999999851],"honeypot":0,"survey":"mace","page":7,"trial_type":"survey-mace","trial_index":15,"time_elapsed":441859,"internal_node_id":"0.0-15.0","task_version":"prescreen-v0.3","browser_interactions":0},{"responses":{"01":"No","02":"No","03":"No","04":"No"},"rt":21137.10000000149,"item_order":[0,1,2,3],"radio_events":[10402.39999999851,13342.39999999851,18877.69999999553,19935],"checkbox_events":[],"key_events":[],"mouse_events":[10402.39999999851,13342.39999999851,18877.69999999553,19935,20557.60000000149,21135.10000000149],"honeypot":0,"survey":"mace","page":8,"trial_type":"survey-mace","trial_index":16,"time_elapsed":463000,"internal_node_id":"0.0-16.0","task_version":"prescreen-v0.3","browser_interactions":0},{"responses":{"01":"Yes","01_ages_5":"5","01_ages_6":"6","01_ages_7":"7","01_ages_8":"8","01_ages_9":"9","01_ages_10":"10","01_ages_11":"11","01_ages_12":"12","01_ages_13":"13","01_ages_14":"14","01_ages_15":"15","01_ages_16":"16","01_ages_17":"17","01_ages_18":"18","02":"Yes","02_ages_5":"5","02_ages_6":"6","02_ages_7":"7","02_ages_8":"8","02_ages_9":"9","02_ages_10":"10","02_ages_11":"11","02_ages_12":"12","02_ages_13":"13","02_ages_14":"14","02_ages_15":"15","02_ages_16":"16","02_ages_17":"17","02_ages_18":"18","03":"Yes","03_ages_1":"1","03_ages_2":"2","03_ages_3":"3","03_ages_4":"4","03_ages_5":"5","03_ages_6":"6","03_ages_7":"7","03_ages_8":"8","03_ages_9":"9","03_ages_10":"10","03_ages_11":"11","03_ages_12":"12","03_ages_13":"13","03_ages_14":"14","03_ages_15":"15","03_ages_16":"16","03_ages_17":"17","03_ages_18":"18","04":"Yes","04_ages_1":"1","04_ages_2":"2","04_ages_3":"3","04_ages_4":"4","04_ages_5":"5","04_ages_6":"6","04_ages_7":"7","04_ages_8":"8","04_ages_9":"9","04_ages_10":"10","04_ages_11":"11","04_ages_12":"12","04_ages_13":"13","04_ages_14":"14","04_ages_15":"15","04_ages_16":"16","04_ages_17":"17","04_ages_18":"18"},"rt":74016.69999999553,"item_order":[0,1,2,3],"radio_events":[7876.79999999702,26094.79999999702,35943.10000000149,63461.39999999851],"checkbox_events":[16179.69999999553,16540.39999999851,16892.89999999851,17619.79999999702,18175.19999999553,18527.19999999553,18955.29999999702,19900,20650.10000000149,21160.10000000149,21790.19999999553,22877.69999999553,23282.39999999851,23733.29999999702,27475.39999999851,28090.39999999851,28922.60000000149,29388.10000000149,29777.89999999851,30183.10000000149,30670.60000000149,31076.19999999553,31495.5,31931.10000000149,32432.89999999851,32912.79999999702,33340.79999999702,33783.29999999702,39625.69999999553,40068.5,40489,40953.5,42176,42603.29999999702,43030.79999999702,43945.89999999851,48625.60000000149,49053.69999999553,49706.29999999702,50260.79999999702,50959.19999999553,51618.60000000149,52039.39999999851,52488.60000000149,52901.29999999702,54116,54611.39999999851,55143.69999999553,55608.89999999851,56216.39999999851,57063.79999999702,57536.60000000149,58413.69999999553,58954.39999999851,65081.89999999851,65532,65967.29999999702,66379.10000000149,66821.69999999553,67196.60000000149,67654.29999999702,68884.29999999702,69282.19999999553,69746.39999999851,70151.29999999702,70602.60000000149,71059.19999999553,71802,72274.29999999702,72702.19999999553,73159.89999999851,73557.79999999702],"key_events":[],"mouse_events":[7876.79999999702,16179.69999999553,16540.39999999851,16892.89999999851,17199.60000000149,17619.79999999702,18175.19999999553,18527.19999999553,18955.29999999702,19330.10000000149,19900,20283.10000000149,20650.10000000149,21160.10000000149,21790.19999999553,22877.69999999553,23282.39999999851,23733.29999999702,26094.79999999702,27475.39999999851,28090.39999999851,28517.60000000149,28922.60000000149,29388.10000000149,29777.89999999851,30183.10000000149,30670.60000000149,31076.19999999553,31495.5,31931.10000000149,32432.89999999851,32912.79999999702,33340.79999999702,33783.29999999702,35943.10000000149,38343,38635.60000000149,39625.69999999553,40068.5,40489,40953.5,42176,42603.29999999702,43030.79999999702,43945.89999999851,47973.10000000149,48625.60000000149,49053.69999999553,49706.29999999702,50260.79999999702,50658.60000000149,50959.19999999553,51618.60000000149,52039.39999999851,52488.60000000149,52901.29999999702,53463.79999999702,53793.89999999851,54116,54611.39999999851,55143.69999999553,55608.89999999851,56216.39999999851,56689.5,57063.79999999702,57536.60000000149,58083.79999999702,58413.69999999553,58954.39999999851,63461.39999999851,65081.89999999851,65532,65967.29999999702,66379.10000000149,66821.69999999553,67196.60000000149,67654.29999999702,68104.19999999553,68884.29999999702,69282.19999999553,69746.39999999851,70151.29999999702,70602.60000000149,71059.19999999553,71502.19999999553,71802,72274.29999999702,72702.19999999553,73159.89999999851,73557.79999999702,74014.79999999702],"honeypot":0,"survey":"mace","page":9,"trial_type":"survey-mace","trial_index":17,"time_elapsed":537020,"internal_node_id":"0.0-17.0","task_version":"prescreen-v0.3","browser_interactions":0},{"responses":{"01":"No","02":"No","03":"No","04":"No","05":"No","06":"Yes","06_ages_17":"17","07":"Yes","07_ages_5":"5","07_ages_6":"6","07_ages_7":"7","07_ages_8":"8","07_ages_9":"9","07_ages_10":"10","07_ages_11":"11","07_ages_12":"12","07_ages_13":"13","07_ages_14":"14","07_ages_15":"15","07_ages_16":"16","07_ages_17":"17","07_ages_18":"18","08":"Yes","08_ages_5":"5","08_ages_6":"6","08_ages_7":"7","08_ages_8":"8","08_ages_9":"9","08_ages_10":"10","08_ages_11":"11","08_ages_12":"12","08_ages_13":"13","08_ages_14":"14","08_ages_15":"15","08_ages_16":"16","08_ages_17":"17","08_ages_18":"18"},"rt":46033.29999999702,"item_order":[0,1,2,3,4,5,6,7],"radio_events":[4237.89999999851,5085.69999999553,6931.19999999553,8663.39999999851,11978.60000000149,13785.69999999553,21278.79999999702,35559],"checkbox_events":[15518.19999999553,25156.19999999553,25658,27091.10000000149,27946.29999999702,28449.10000000149,28929.19999999553,29326.60000000149,29776.60000000149,30504.19999999553,30999.19999999553,31396.5,31801.79999999702,32446.60000000149,33098.69999999553,36789.39999999851,37261.79999999702,37629.10000000149,38461.5,38866.79999999702,39421.79999999702,39977,40809.39999999851,41245.19999999553,41626.89999999851,42002.10000000149,42354.19999999553,44409.39999999851,44942.19999999553],"key_events":[],"mouse_events":[4237.89999999851,5085.69999999553,6931.19999999553,8663.39999999851,11978.60000000149,13785.69999999553,15518.19999999553,20903.29999999702,21278.79999999702,25156.19999999553,25658,26297.29999999702,27091.10000000149,27721.79999999702,27946.29999999702,28449.10000000149,28929.19999999553,29326.60000000149,29776.60000000149,30211.69999999553,30504.19999999553,30999.19999999553,31396.5,31801.79999999702,32446.60000000149,33098.69999999553,35559,36789.39999999851,37261.79999999702,37629.10000000149,38011.89999999851,38461.5,38866.79999999702,39421.79999999702,39977,40381.89999999851,40809.39999999851,41245.19999999553,41626.89999999851,42002.10000000149,42354.19999999553,42864.19999999553,43472.39999999851,43899,44409.39999999851,44942.19999999553,46029.69999999553],"honeypot":0,"survey":"mace","page":10,"trial_type":"survey-mace","trial_index":18,"time_elapsed":583059,"internal_node_id":"0.0-18.0","task_version":"prescreen-v0.3","browser_interactions":0,"instructed":0},{"rt":3997.39999999851,"trial_type":"mental-health-alert","trial_index":19,"time_elapsed":587059,"internal_node_id":"0.0-19.0","task_version":"prescreen-v0.3","interactions":"[]"}]