[{"view_history":[{"page_index":0,"viewing_time":2863},{"page_index":1,"viewing_time":13321},{"page_index":2,"viewing_time":11374},{"page_index":3,"viewing_time":26291}],"rt":53852,"trial_type":"instructions","trial_index":0,"time_elapsed":53855,"internal_node_id":"0.0-0.0","task_version":"prescreen-v0.3"},{"rt":55252.000000000015,"responses":{"age":"19","gender-categorical":"Female","gender-free-response":"","ethnicity":"Not Hispanic or Latino","race":["American Indian/Alaska Native","Black or African American","White"],"education":"Some college"},"trial_type":"survey-demo","trial_index":1,"time_elapsed":109114,"internal_node_id":"0.0-1.0","task_version":"prescreen-v0.3"},{"responses":{"Q04":"0","Q02":"0","Q19":"1","Q21":"3","Q11":"0","Q05":"0","Q07":"1","Q16":"1","Q10":"0","Q09":"0","Q01":"2","Q15":"2","Q13":"0","Q03":"0","Q18":"0","Q12":"0","Q14":"0","Q17":"0","Q20":"0","Q06":"0","Q08":"0"},"rt":175023,"item_order":[3,1,18,20,10,4,6,15,9,8,0,14,12,2,17,11,13,16,19,5,7],"radio_events":[19353.000000000015,23394,63927,67984,70643,92762,105776,112171,115533,120067,122427,137143,140523,142204,152858,157070,161605,163538,165622,169220,173561],"key_events":[],"mouse_events":[19353.000000000015,23394,63927,67984,70643,92762,105776,112171,115533,120067,122427,137143,140523,142204,152858,157070,161605,163538,165622,169220,171904,173561,175007],"straightlining":0.7142857142857143,"zigzagging":0.2,"honeypot":0,"survey":"sns","trial_type":"survey-template","trial_index":2,"time_elapsed":284142,"internal_node_id":"0.0-2.0","task_version":"prescreen-v0.3","browser_interactions":0,"infrequency":0},{"responses":{"Q05":"3","Q01":"3","Q09":"3","Q11":"2","Q03":"3","Q12":"1","Q07":"3","Q02":"0","Q06":"3","Q13":"0","Q10":"0","Q08":"2","Q04":"3"},"rt":71330,"item_order":[4,0,8,10,2,11,6,1,5,12,9,7,3],"radio_events":[14400,17052,19894,24133,30618,39270,43189,45801,49799,52794,60891,66283.00000000006,70422],"key_events":[],"mouse_events":[14400,17052,19894,24133,30618,39270,43189,45801,49799,52179,52794,60891,66283.00000000006,69839,70422,71319],"straightlining":0.5384615384615384,"zigzagging":0.5,"honeypot":0,"survey":"bisbas","trial_type":"survey-template","trial_index":3,"time_elapsed":355475,"internal_node_id":"0.0-3.0","task_version":"prescreen-v0.3","browser_interactions":0,"infrequency":0},{"responses":{"Q01":"2","Q02":"2","Q03":"4"},"rt":28898,"radio_events":[20069,24053,27845],"key_events":[],"mouse_events":[20069,24053,27845,28893],"survey":"map","page":1,"trial_type":"survey-map","trial_index":4,"time_elapsed":384379,"internal_node_id":"0.0-4.0","task_version":"prescreen-v0.3","browser_interactions":0},{"responses":{"Q04":"4","Q05":"3","Q06":"2"},"rt":23344.00000000006,"radio_events":[15555,19620,22499],"key_events":[],"mouse_events":[15555,19620,22499,23339],"survey":"map","page":2,"trial_type":"survey-map","trial_index":5,"time_elapsed":407726,"internal_node_id":"0.0-5.0","task_version":"prescreen-v0.3","browser_interactions":0},{"responses":{"Q07":"4","Q08":"4","Q09":"4"},"rt":33827,"radio_events":[10249,26206,30176],"key_events":[],"mouse_events":[10249,26206,30176,33822],"survey":"map","page":3,"trial_type":"survey-map","trial_index":6,"time_elapsed":441556,"internal_node_id":"0.0-6.0","task_version":"prescreen-v0.3","browser_interactions":0},{"responses":{"Q10":"3","Q11":"1","Q12":"2","Q13":"3","Q16":"0","Q14":"4","Q15":"3"},"rt":76038.99999999994,"radio_events":[22007,26161,30656,39843,50620,66266,71359],"key_events":[],"mouse_events":[22007,26161,30656,39843,50620,66266,71359,76032],"survey":"map","page":4,"trial_type":"survey-map","trial_index":7,"time_elapsed":517597,"internal_node_id":"0.0-7.0","task_version":"prescreen-v0.3","browser_interactions":0,"infrequency":0},{"view_history":[{"page_index":0,"viewing_time":2699.9999999998836},{"page_index":1,"viewing_time":15333.000000000058}],"rt":18033.99999999994,"trial_type":"instructions","trial_index":8,"time_elapsed":535632,"internal_node_id":"0.0-8.0","task_version":"prescreen-v0.3"},{"responses":{"01":"No","02":"No","03":"No","04":"No","05":"No","06":"No"},"rt":73145,"item_order":[0,1,2,3,4,5],"radio_events":[11900.000000000116,14228,20332,34534,40023,58825,62706,68340],"checkbox_events":[],"key_events":[],"mouse_events":[0,11900.000000000116,14228,20332,34534,40023,58825,60563,61404,62010,62706,68340,73134],"honeypot":0,"survey":"mace","page":1,"trial_type":"survey-mace","trial_index":9,"time_elapsed":608785,"internal_node_id":"0.0-9.0","task_version":"prescreen-v0.3","browser_interactions":0},{"responses":{"01":"No","02":"No","03":"Yes","03_ages_9":"9","03_ages_10":"10","04":"No","05":"No","06":"No","07":"No","08":"No"},"rt":58380,"item_order":[0,1,2,3,4,5,6,7],"radio_events":[3160,6450,10808,32054,51893,54536,56218,57721],"checkbox_events":[16710,18149,18901,22830,26031,48649],"key_events":[],"mouse_events":[3160,6450,10808,16710,18149,18901,22830,26031,32054,48649,51893,54536,56218,57721,58369],"honeypot":0,"survey":"mace","page":2,"trial_type":"survey-mace","trial_index":10,"time_elapsed":667171,"internal_node_id":"0.0-10.0","task_version":"prescreen-v0.3","browser_interactions":0},{"responses":{"01":"No","02":"No","03":"No","04":"No"},"rt":12587,"item_order":[0,1,2,3],"radio_events":[6038,9345.000000000116,10646,11988],"checkbox_events":[],"key_events":[],"mouse_events":[6038,9345.000000000116,10646,11512,11988,12579],"honeypot":0,"survey":"mace","page":3,"trial_type":"survey-mace","trial_index":11,"time_elapsed":679762,"internal_node_id":"0.0-11.0","task_version":"prescreen-v0.3","browser_interactions":0},{"responses":{"01":"No","02":"No"},"rt":11457,"item_order":[0,1],"radio_events":[4079,9842],"checkbox_events":[],"key_events":[],"mouse_events":[4079,6164,9842,11452],"honeypot":0,"survey":"mace","page":4,"trial_type":"survey-mace","trial_index":12,"time_elapsed":691223,"internal_node_id":"0.0-12.0","task_version":"prescreen-v0.3","browser_interactions":0},{"responses":{"01":"No","02":"No","03":"No","04":"No","05":"No"},"rt":56630,"item_order":[0,1,2,3,4],"radio_events":[44973,46995,50624,54439.00000000012,56032],"checkbox_events":[],"key_events":[],"mouse_events":[817,44973,46995,50624,53680,54439.00000000012,55458.00000000012,56032,56622],"honeypot":0,"survey":"mace","page":5,"trial_type":"survey-mace","trial_index":13,"time_elapsed":747860,"internal_node_id":"0.0-13.0","task_version":"prescreen-v0.3","browser_interactions":0},{"responses":{"01":"No","02":"No","03":"No","04":"No","05":"No"},"rt":35127,"item_order":[0,1,2,3,4],"radio_events":[11053,17917.000000000116,25378,29889,31069,33899],"checkbox_events":[],"key_events":[],"mouse_events":[11053,17917.000000000116,20236,25378,28304,29889,31069,33446.00000000012,33899,35119.00000000012],"honeypot":0,"survey":"mace","page":6,"trial_type":"survey-mace","trial_index":14,"time_elapsed":782993,"internal_node_id":"0.0-14.0","task_version":"prescreen-v0.3","browser_interactions":0},{"responses":{"01":"No","02":"No","03":"No","04":"No","05":"No","06":"No","07":"No"},"rt":11861,"item_order":[0,1,2,3,4,5,6],"radio_events":[3485,5320,6614.000000000116,7762,8805,10170,11133.000000000116],"checkbox_events":[],"key_events":[],"mouse_events":[3485,5320,6614.000000000116,7762,8805,10170,11133.000000000116,11852],"honeypot":0,"survey":"mace","page":7,"trial_type":"survey-mace","trial_index":15,"time_elapsed":794855,"internal_node_id":"0.0-15.0","task_version":"prescreen-v0.3","browser_interactions":0},{"responses":{"01":"No","02":"Yes","02_ages_12":"12","02_ages_13":"13","02_ages_14":"14","02_ages_15":"15","02_ages_16":"16","02_ages_17":"17","02_ages_18":"18","03":"No","04":"No"},"rt":45052,"item_order":[0,1,2,3],"radio_events":[7787,14319,41510,44057],"checkbox_events":[21416,22064,22565,23019,24109,25192,25855,26543,27084],"key_events":[],"mouse_events":[7787,14319,21416,22064,22565,23019,23527,24109,24658,25192,25855,26543,27084,41510,44057,45044.00000000012],"honeypot":0,"survey":"mace","page":8,"trial_type":"survey-mace","trial_index":16,"time_elapsed":839906,"internal_node_id":"0.0-16.0","task_version":"prescreen-v0.3","browser_interactions":0},{"responses":{"01":"Yes","01_ages_1":"1","01_ages_2":"2","01_ages_3":"3","01_ages_4":"4","01_ages_5":"5","01_ages_6":"6","01_ages_7":"7","01_ages_8":"8","01_ages_9":"9","01_ages_10":"10","01_ages_11":"11","01_ages_12":"12","01_ages_13":"13","01_ages_14":"14","01_ages_15":"15","01_ages_16":"16","01_ages_17":"17","01_ages_18":"18","02":"Yes","02_ages_1":"1","02_ages_2":"2","02_ages_3":"3","02_ages_4":"4","02_ages_5":"5","02_ages_6":"6","02_ages_7":"7","02_ages_8":"8","02_ages_9":"9","02_ages_10":"10","02_ages_11":"11","02_ages_12":"12","02_ages_13":"13","02_ages_14":"14","02_ages_15":"15","02_ages_16":"16","02_ages_17":"17","02_ages_18":"18","03":"Yes","03_ages_1":"1","03_ages_2":"2","03_ages_3":"3","03_ages_4":"4","03_ages_5":"5","03_ages_6":"6","03_ages_7":"7","03_ages_8":"8","03_ages_9":"9","03_ages_10":"10","03_ages_11":"11","03_ages_12":"12","03_ages_13":"13","03_ages_14":"14","03_ages_15":"15","03_ages_16":"16","03_ages_17":"17","03_ages_18":"18","04":"Yes","04_ages_1":"1","04_ages_2":"2","04_ages_3":"3","04_ages_4":"4","04_ages_5":"5","04_ages_6":"6","04_ages_7":"7","04_ages_8":"8","04_ages_9":"9","04_ages_10":"10","04_ages_11":"11","04_ages_12":"12","04_ages_13":"13","04_ages_14":"14","04_ages_15":"15","04_ages_16":"16","04_ages_17":"17","04_ages_18":"18"},"rt":70920,"item_order":[0,1,2,3],"radio_events":[5441,25393,40746,56204],"checkbox_events":[7891,9225,9750,10306,10817.000000000116,11310,11780,12256,12733,13235.000000000116,13761,14269.000000000116,14762,15288.000000000116,15790,16315,17503,18465,26590,27132,28021,28481,29023,29540,29985.000000000116,30438,31514.000000000116,32013,32540,33041,33510,34000,34529,35483,36582,37625,41692.00000000012,42265,43123,43576,44125,44651,45144.00000000012,45629.00000000012,46161,46689,47189,47674,48184,48741,49235.00000000012,50367,50877,51644.00000000012,57813,58330,59324,59858,61103,61888,63003,63941,64466.00000000012,65396,65970,66537,67183,68153.00000000012,68703,69350,69851,70393],"key_events":[],"mouse_events":[5441,7891,8870,9225,9750,10306,10817.000000000116,11310,11780,12256,12733,13235.000000000116,13761,14269.000000000116,14762,15288.000000000116,15790,16315,17503,18465,25393,26590,27132,27649,28021,28481,29023,29540,29985.000000000116,30438,30988,31514.000000000116,32013,32540,33041,33510,34000,34529,35014.00000000012,35483,36049,36582,37625,40746,41692.00000000012,42265,43123,43576,44125,44651,45144.00000000012,45629.00000000012,46161,46689,47189,47674,48184,48741,49235.00000000012,49849,50367,50877,51644.00000000012,56204,57813,58330,58872,59324,59858,60376,61103,61888,62469,63003,63544,63941,64466.00000000012,64951.00000000012,65396,65970,66537,67183,67781,68153.00000000012,68703,69350,69851,70393,70910],"honeypot":0,"survey":"mace","page":9,"trial_type":"survey-mace","trial_index":17,"time_elapsed":910832,"internal_node_id":"0.0-17.0","task_version":"prescreen-v0.3","browser_interactions":0},{"responses":{"01":"No","02":"No","03":"No","04":"No","05":"No","06":"Yes","06_ages_17":"17","07":"Yes","07_ages_6":"6","07_ages_7":"7","07_ages_8":"8","07_ages_9":"9","07_ages_10":"10","07_ages_11":"11","07_ages_12":"12","07_ages_13":"13","07_ages_14":"14","07_ages_15":"15","07_ages_16":"16","07_ages_17":"17","07_ages_18":"18","08":"Yes","08_ages_7":"7","08_ages_8":"8","08_ages_9":"9","08_ages_10":"10","08_ages_11":"11","08_ages_12":"12","08_ages_13":"13","08_ages_14":"14","08_ages_15":"15","08_ages_16":"16","08_ages_17":"17","08_ages_18":"18"},"rt":70022.00000000012,"item_order":[0,1,2,3,4,5,6,7],"radio_events":[5004,5869,9296,13605,18649,22418,31554,51489.00000000012],"checkbox_events":[24237,34507,35011,36508.00000000012,37567,39782.00000000012,40511,41787.00000000012,42305,42798,43727,44237,44787.00000000012,45531,46153,46662.00000000012,53704,54237,54801.00000000012,55386,55952,56460.00000000012,57641,58110,58676.00000000012,59719,60220,60713,61473,62023,62977,63486,64020,64537.00000000012,65588,66122,66607,67067,67560,68118],"key_events":[],"mouse_events":[5004,5869,9296,13605,18649,22418,24237,31554,34507,35011,35490,36508.00000000012,37567,39782.00000000012,40511,41787.00000000012,42305,42798,43307,43727,44237,44787.00000000012,45531,46153,46662.00000000012,51489.00000000012,53704,54237,54801.00000000012,55386,55952,56460.00000000012,56914,57641,58110,58676.00000000012,59209,59719,60220,60713,61473,62023,62597,62977,63486,64020,64537.00000000012,65588,66122,66607,67067,67560,68118,70011],"honeypot":0,"survey":"mace","page":10,"trial_type":"survey-mace","trial_index":18,"time_elapsed":980862,"internal_node_id":"0.0-18.0","task_version":"prescreen-v0.3","browser_interactions":0,"instructed":0},{"rt":8803,"trial_type":"mental-health-alert","trial_index":19,"time_elapsed":989670,"internal_node_id":"0.0-19.0","task_version":"prescreen-v0.3","interactions":"[]"}]