[{"view_history":[{"page_index":0,"viewing_time":3072},{"page_index":1,"viewing_time":6263.5},{"page_index":2,"viewing_time":5169.5},{"page_index":3,"viewing_time":1550.6000003814697}],"rt":16056.699999809265,"trial_type":"instructions","trial_index":0,"time_elapsed":16131,"internal_node_id":"0.0-0.0","task_version":"prescreen-v0.3"},{"rt":39178.400000572205,"responses":{"age":"77","gender-categorical":"Male","gender-free-response":"","ethnicity":"Not Hispanic or Latino","race":["White"],"education":"Master degree or higher","siblings":"4"},"trial_type":"survey-demo","trial_index":1,"time_elapsed":55322,"internal_node_id":"0.0-1.0","task_version":"prescreen-v0.3"},{"responses":{"Q13":"0","Q02":"0","Q17":"2","Q20":"0","Q16":"0","Q12":"0","Q06":"2","Q18":"0","Q05":"0","Q14":"0","Q15":"0","Q07":"0","Q04":"0","Q11":"0","Q21":"3","Q10":"0","Q01":"0","Q09":"0","Q03":"0","Q08":"2","Q19":"0"},"rt":124760.60000038147,"item_order":[12,1,16,19,15,11,5,17,4,13,14,6,3,10,20,9,0,8,2,7,18],"radio_events":[5435.60000038147,6662.10000038147,8952.800000190735,11509.39999961853,16979.39999961853,21973.699999809265,27397.300000190735,40583,41411.39999961853,42919.5,43589,50204.89999961853,51604.699999809265,52868.300000190735,64590.300000190735,70044.60000038147,71887.10000038147,86813,91268.80000019073,99207.19999980927,122704.89999961853],"key_events":[],"mouse_events":[5435.60000038147,6662.10000038147,8952.800000190735,11509.39999961853,16979.39999961853,21973.699999809265,27091.39999961853,27397.300000190735,38342.10000038147,40051.89999961853,40583,41411.39999961853,42142.699999809265,42919.5,43589,50204.89999961853,51604.699999809265,52868.300000190735,64590.300000190735,70044.60000038147,71887.10000038147,86813,91268.80000019073,99207.19999980927,119461.19999980927,122704.89999961853,124756.80000019073],"straightlining":0.8095238095238095,"zigzagging":0.1,"honeypot":0,"survey":"sns","trial_type":"survey-template","trial_index":2,"time_elapsed":180091,"internal_node_id":"0.0-2.0","task_version":"prescreen-v0.3","browser_interactions":0,"infrequency":0},{"responses":{"Q06":"2","Q01":"0","Q10":"0","Q13":"0","Q05":"3","Q03":"0","Q02":"0","Q08":"3","Q09":"3","Q07":"3","Q12":"0","Q11":"2","Q04":"0"},"rt":194329.80000019073,"item_order":[5,0,9,12,4,2,1,7,8,6,11,10,3],"radio_events":[8867.10000038147,12772.5,13803.699999809265,25849.699999809265,27396.400000572205,54014.199999809265,56683.900000572205,62964.300000190735,69080.4000005722,70878.80000019073,74124,79569.30000019073,88935.69999980927,89020.5,89277.10000038147],"key_events":[],"mouse_events":[8867.10000038147,12772.5,13803.699999809265,16215.400000572205,25849.699999809265,27396.400000572205,36366.400000572205,38244.800000190735,54014.199999809265,55011.60000038147,56683.900000572205,62434.900000572205,62964.300000190735,69080.4000005722,70878.80000019073,74124,79569.30000019073,88930.5,88935.69999980927,89020.5,89277.10000038147,194326.9000005722],"straightlining":0.5384615384615384,"zigzagging":0.3333333333333333,"honeypot":0,"survey":"bisbas","trial_type":"survey-template","trial_index":3,"time_elapsed":374421,"internal_node_id":"0.0-3.0","task_version":"prescreen-v0.3","browser_interactions":2,"infrequency":0},{"responses":{"Q01":"2","Q02":"2","Q03":"2"},"rt":17671.89999961853,"radio_events":[10182.699999809265,14702.89999961853,16206.800000190735],"key_events":[],"mouse_events":[10182.699999809265,14702.89999961853,16206.800000190735,17670.300000190735],"survey":"map","page":1,"trial_type":"survey-map","trial_index":4,"time_elapsed":392098,"internal_node_id":"0.0-4.0","task_version":"prescreen-v0.3","browser_interactions":0},{"responses":{"Q04":"2","Q05":"2","Q06":"2"},"rt":31746.699999809265,"radio_events":[4077.8999996185303,4885.5,5735.599999427795],"key_events":[],"mouse_events":[2093.3999996185303,2861.800000190735,4077.8999996185303,4885.5,5735.599999427795,31745.5],"survey":"map","page":2,"trial_type":"survey-map","trial_index":5,"time_elapsed":423852,"internal_node_id":"0.0-5.0","task_version":"prescreen-v0.3","browser_interactions":0},{"responses":{"Q07":"3","Q08":"2","Q09":"2"},"rt":28313.199999809265,"radio_events":[4128.799999237061,13528.39999961853,27027.699999809265],"key_events":[],"mouse_events":[3672.0999994277954,4128.799999237061,4565.599999427795,12475.599999427795,13528.39999961853,18856.199999809265,21793.5,24367.89999961853,27027.699999809265,28312],"survey":"map","page":3,"trial_type":"survey-map","trial_index":6,"time_elapsed":452167,"internal_node_id":"0.0-6.0","task_version":"prescreen-v0.3","browser_interactions":0},{"responses":{"Q10":"4","Q11":"4","Q12":"3","Q13":"4","Q16":"0","Q14":"3","Q15":"1"},"rt":93542.5,"radio_events":[14362.599999427795,15047.199999809265,20476.300000190735,21907,25186.099999427795,26451.099999427795,41899.5,55403.89999961853,68315.80000019073],"key_events":[],"mouse_events":[14362.599999427795,15047.199999809265,15355.099999427795,15835.39999961853,18450.199999809265,19092,19756,20476.300000190735,21907,23476.699999809265,25186.099999427795,26451.099999427795,41899.5,55403.89999961853,67307.69999980927,68315.80000019073,93540.39999961853],"survey":"map","page":4,"trial_type":"survey-map","trial_index":7,"time_elapsed":545714,"internal_node_id":"0.0-7.0","task_version":"prescreen-v0.3","browser_interactions":0,"infrequency":0},{"view_history":[{"page_index":0,"viewing_time":2761.2000007629395},{"page_index":1,"viewing_time":35705.099999427795}],"rt":38467.70000076294,"trial_type":"instructions","trial_index":8,"time_elapsed":584182,"internal_node_id":"0.0-8.0","task_version":"prescreen-v0.3"},{"responses":{"01":"No","02":"No","03":"No","04":"No","05":"No","06":"No"},"rt":64359.300000190735,"item_order":[0,1,2,3,4,5],"radio_events":[34572.199999809265,35539.300000190735,36074.39999961853,37680.699999809265,38225.699999809265,63209.599999427795],"checkbox_events":[],"key_events":[],"mouse_events":[0.09999942779541016,34572.199999809265,35539.300000190735,36074.39999961853,37680.699999809265,38225.699999809265,62584.89999961853,63209.599999427795,64354.300000190735],"honeypot":0,"survey":"mace","page":1,"trial_type":"survey-mace","trial_index":9,"time_elapsed":648556,"internal_node_id":"0.0-9.0","task_version":"prescreen-v0.3","browser_interactions":0},{"responses":{"01":"No","02":"No","03":"No","04":"No","05":"No","06":"No","07":"No","08":"No"},"rt":55507.099999427795,"item_order":[0,1,2,3,4,5,6,7],"radio_events":[20782.699999809265,21733.099999427795,23382.5,24477.199999809265,28574.199999809265,29460,30493.29999923706,43285.199999809265],"checkbox_events":[],"key_events":[],"mouse_events":[20782.699999809265,21733.099999427795,22314.29999923706,23382.5,24477.199999809265,25543.199999809265,28574.199999809265,29460,30493.29999923706,43285.199999809265,55500.29999923706],"honeypot":0,"survey":"mace","page":2,"trial_type":"survey-mace","trial_index":10,"time_elapsed":704067,"internal_node_id":"0.0-10.0","task_version":"prescreen-v0.3","browser_interactions":0},{"responses":{"01":"No","02":"No","03":"No","04":"No"},"rt":17577.60000038147,"item_order":[0,1,2,3],"radio_events":[11852.800000190735,15027.800000190735,15902.800000190735,16597.60000038147],"checkbox_events":[],"key_events":[],"mouse_events":[8413,9064.5,11266.900000572205,11852.800000190735,13746.400000572205,15027.800000190735,15902.800000190735,16597.60000038147,17574.199999809265],"honeypot":0,"survey":"mace","page":3,"trial_type":"survey-mace","trial_index":11,"time_elapsed":721649,"internal_node_id":"0.0-11.0","task_version":"prescreen-v0.3","browser_interactions":0},{"responses":{"01":"No","02":"No"},"rt":49257.900000572205,"item_order":[0,1],"radio_events":[44044.699999809265,45432.10000038147],"checkbox_events":[],"key_events":[],"mouse_events":[44044.699999809265,45432.10000038147,49255.900000572205],"honeypot":0,"survey":"mace","page":4,"trial_type":"survey-mace","trial_index":12,"time_elapsed":770909,"internal_node_id":"0.0-12.0","task_version":"prescreen-v0.3","browser_interactions":0},{"responses":{"01":"No","02":"No","03":"No","04":"No","05":"No"},"rt":13598,"item_order":[0,1,2,3,4],"radio_events":[3600.9000005722046,4652.800000190735,5215.400000572205,6416,7824.900000572205],"checkbox_events":[],"key_events":[],"mouse_events":[3600.9000005722046,4652.800000190735,5215.400000572205,6416,7824.900000572205,13594.10000038147],"honeypot":0,"survey":"mace","page":5,"trial_type":"survey-mace","trial_index":13,"time_elapsed":784513,"internal_node_id":"0.0-13.0","task_version":"prescreen-v0.3","browser_interactions":0},{"responses":{"01":"No","02":"No","03":"No","04":"No","05":"No"},"rt":41355,"item_order":[0,1,2,3,4],"radio_events":[3966.5,4734.599999427795,5542.5,6749.699999809265,40318.699999809265],"checkbox_events":[],"key_events":[],"mouse_events":[2837.5999994277954,3966.5,4734.599999427795,5542.5,6749.699999809265,29030.39999961853,36637.29999923706,38982.099999427795,40318.699999809265,41350.199999809265],"honeypot":0,"survey":"mace","page":6,"trial_type":"survey-mace","trial_index":14,"time_elapsed":825872,"internal_node_id":"0.0-14.0","task_version":"prescreen-v0.3","browser_interactions":0},{"responses":{"01":"No","02":"No","03":"No","04":"No","05":"No","06":"No","07":"No"},"rt":22906.5,"item_order":[0,1,2,3,4,5,6],"radio_events":[11923.199999809265,12527.5,14141.39999961853,15199.699999809265,15898.39999961853,17727.300000190735,18705.699999809265],"checkbox_events":[],"key_events":[],"mouse_events":[11923.199999809265,12527.5,13165.199999809265,14141.39999961853,15199.699999809265,15898.39999961853,17727.300000190735,18705.699999809265,22900.39999961853],"honeypot":0,"survey":"mace","page":7,"trial_type":"survey-mace","trial_index":15,"time_elapsed":848784,"internal_node_id":"0.0-15.0","task_version":"prescreen-v0.3","browser_interactions":0},{"responses":{"01":"No","02":"No","03":"No","04":"No"},"rt":32618.300000190735,"item_order":[0,1,2,3],"radio_events":[2869.9000005722046,7230.700000762939,8590.20000076294,9751.10000038147],"checkbox_events":[],"key_events":[],"mouse_events":[2869.9000005722046,4219,7230.700000762939,8590.20000076294,9751.10000038147,32614.900000572205],"honeypot":0,"survey":"mace","page":8,"trial_type":"survey-mace","trial_index":16,"time_elapsed":881406,"internal_node_id":"0.0-16.0","task_version":"prescreen-v0.3","browser_interactions":0},{"responses":{"01":"Yes","01_ages_1":"1","01_ages_2":"2","01_ages_3":"3","01_ages_4":"4","01_ages_5":"5","01_ages_6":"6","01_ages_7":"7","01_ages_8":"8","01_ages_9":"9","01_ages_10":"10","01_ages_11":"11","01_ages_12":"12","01_ages_13":"13","01_ages_14":"14","01_ages_15":"15","01_ages_16":"16","01_ages_17":"17","01_ages_18":"18","02":"Yes","02_ages_2":"2","02_ages_3":"3","02_ages_4":"4","02_ages_7":"7","02_ages_8":"8","02_ages_9":"9","02_ages_10":"10","03":"Yes","03_ages_6":"6","03_ages_7":"7","03_ages_8":"8","04":"Yes","04_ages_6":"6","04_ages_7":"7","04_ages_8":"8","04_ages_9":"9"},"rt":277657.80000019073,"item_order":[0,1,2,3],"radio_events":[8890.699999809265,10678.39999961853,11839.89999961853,14167.800000190735,50112,65008.89999961853,268822.30000019073],"checkbox_events":[21649,21992.800000190735,22399.5,24439.5,26628.699999809265,27335.89999961853,28046.89999961853,28575.5,29896.89999961853,38680.800000190735,40218.300000190735,40847.89999961853,41646.5,42346.300000190735,42935.39999961853,45184.5,46457.300000190735,47152.89999961853,51262.89999961853,52278.5,52888.39999961853,53271.599999427795,57569.800000190735,58151.699999809265,58895.599999427795,67207.5,67775.30000019073,68599.0999994278,272650.0999994278,273924.89999961853,274762.5,275930.19999980927],"key_events":[],"mouse_events":[8890.699999809265,10678.39999961853,11839.89999961853,14167.800000190735,21649,21992.800000190735,22399.5,23599.39999961853,24439.5,25104,26628.699999809265,27335.89999961853,28046.89999961853,28575.5,29118.599999427795,29896.89999961853,32227.099999427795,35863.300000190735,37725.699999809265,38680.800000190735,40218.300000190735,40847.89999961853,41646.5,42346.300000190735,42935.39999961853,45184.5,46457.300000190735,47152.89999961853,50112,51262.89999961853,52278.5,52888.39999961853,53271.599999427795,57569.800000190735,58151.699999809265,58895.599999427795,65008.89999961853,67207.5,67775.30000019073,68599.0999994278,268822.30000019073,272650.0999994278,273102.89999961853,273924.89999961853,274762.5,275930.19999980927,277654.30000019073],"honeypot":0,"survey":"mace","page":9,"trial_type":"survey-mace","trial_index":17,"time_elapsed":1159062,"internal_node_id":"0.0-17.0","task_version":"prescreen-v0.3","browser_interactions":0},{"responses":{"01":"No","02":"No","03":"No","04":"No","05":"No","06":"Yes","06_ages_17":"17","07":"Yes","07_ages_5":"5","07_ages_6":"6","07_ages_7":"7","07_ages_8":"8","07_ages_9":"9","07_ages_10":"10","07_ages_11":"11","07_ages_12":"12","07_ages_13":"13","07_ages_14":"14","07_ages_15":"15","08":"Yes","08_ages_3":"3","08_ages_4":"4","08_ages_5":"5","08_ages_6":"6","08_ages_7":"7","08_ages_8":"8","08_ages_9":"9","08_ages_10":"10","08_ages_11":"11","08_ages_12":"12","08_ages_13":"13","08_ages_14":"14","08_ages_15":"15","08_ages_16":"16","08_ages_17":"17","08_ages_18":"18"},"rt":89856.89999961853,"item_order":[0,1,2,3,4,5,6,7],"radio_events":[3090.300000190735,3666,6553.39999961853,20899.300000190735,24217.89999961853,41435,45290.699999809265,66102.80000019073,87738.19999980927],"checkbox_events":[26817,51269.5,51963.5,52813.300000190735,53307,53913.599999427795,54506.199999809265,55576.39999961853,55997.300000190735,56434.300000190735,56913.199999809265,57347.199999809265,57762.5,59234.800000190735,59938.699999809265,60410.199999809265,61059.800000190735,62082.5,69179.80000019073,69714.30000019073,70425.19999980927,70914.80000019073,71563.39999961853,72754,73312,73882.19999980927,74849.69999980927,75435.30000019073,76290.80000019073,77314.0999994278,78083.19999980927,78770.30000019073,80519.5999994278,81234.89999961853],"key_events":[],"mouse_events":[3090.300000190735,3666,4501.39999961853,6553.39999961853,7130.599999427795,11330,20899.300000190735,22083.89999961853,24217.89999961853,26817,41435,44475.099999427795,45290.699999809265,51269.5,51963.5,52813.300000190735,53307,53913.599999427795,54506.199999809265,55576.39999961853,55997.300000190735,56434.300000190735,56913.199999809265,57347.199999809265,57762.5,58171.199999809265,59234.800000190735,59938.699999809265,60410.199999809265,61059.800000190735,62082.5,66102.80000019073,69179.80000019073,69714.30000019073,70425.19999980927,70914.80000019073,71563.39999961853,72754,73312,73882.19999980927,74849.69999980927,75435.30000019073,76290.80000019073,77314.0999994278,78083.19999980927,78770.30000019073,80519.5999994278,81234.89999961853,83353.89999961853,87738.19999980927,89850.30000019073],"honeypot":0,"survey":"mace","page":10,"trial_type":"survey-mace","trial_index":18,"time_elapsed":1248923,"internal_node_id":"0.0-18.0","task_version":"prescreen-v0.3","browser_interactions":2,"instructed":0},{"rt":5592.60000038147,"trial_type":"mental-health-alert","trial_index":19,"time_elapsed":1254521,"internal_node_id":"0.0-19.0","task_version":"prescreen-v0.3","interactions":"[{\"event\":\"blur\",\"trial\":3,\"time\":356100},{\"event\":\"focus\",\"trial\":3,\"time\":360884},{\"event\":\"blur\",\"trial\":18,\"time\":1187840},{\"event\":\"focus\",\"trial\":18,\"time\":1200446}]"}]