[{"view_history":[{"page_index":0,"viewing_time":1852.699999988079},{"page_index":1,"viewing_time":1085.4000000059605},{"page_index":2,"viewing_time":1551.5},{"page_index":3,"viewing_time":906.7999999821186}],"rt":5397.5,"trial_type":"instructions","trial_index":0,"time_elapsed":5411,"internal_node_id":"0.0-0.0","task_version":"prescreen-v0.3"},{"rt":18876.100000023842,"responses":{"age":"19","gender-categorical":"Female","gender-free-response":"","ethnicity":"Not Hispanic or Latino","race":["Asian"],"education":"Some college"},"trial_type":"survey-demo","trial_index":1,"time_elapsed":24295,"internal_node_id":"0.0-1.0","task_version":"prescreen-v0.3"},{"responses":{"Q10":"2","Q01":"2","Q05":"0","Q17":"2","Q14":"1","Q12":"1","Q08":"1","Q09":"1","Q04":"1","Q06":"0","Q16":"1","Q20":"1","Q21":"3","Q19":"0","Q02":"1","Q03":"0","Q11":"1","Q15":"3","Q18":"2","Q07":"0","Q13":"2"},"rt":120677,"item_order":[9,0,4,16,13,11,7,8,3,5,15,19,20,18,1,2,10,14,17,6,12],"radio_events":[6662.699999988079,7601.5,13857.699999988079,21652.79999998212,23418.40000000596,25136.59999999404,34754.79999998212,47450.59999999404,48856.90000000596,51116.59999999404,54255.5,63541.5,64456.59999999404,68249.29999998212,70007.59999999404,74539.09999999404,77877.79999998212,87625,93636.40000000596,97509.19999998808,98441.09999999404,108283.90000000596,117655.09999999404],"key_events":[],"mouse_events":[5892,6662.699999988079,7601.5,13857.699999988079,17061.09999999404,21652.79999998212,23418.40000000596,25136.59999999404,26104.40000000596,34754.79999998212,41198.69999998808,44888,47450.59999999404,48856.90000000596,51116.59999999404,54255.5,62060.09999999404,63541.5,64456.59999999404,67202.40000000596,68249.29999998212,70007.59999999404,74539.09999999404,77877.79999998212,87625,93636.40000000596,96859.69999998808,97509.19999998808,98441.09999999404,99332.40000000596,102535.09999999404,107826.40000000596,108283.90000000596,110312,111002.59999999404,112440.40000000596,117655.09999999404,120669.79999998212],"straightlining":0.42857142857142855,"zigzagging":0.4,"honeypot":0,"survey":"sns","trial_type":"survey-template","trial_index":2,"time_elapsed":144983,"internal_node_id":"0.0-2.0","task_version":"prescreen-v0.3","browser_interactions":0,"infrequency":0},{"responses":{"Q07":"3","Q13":"0","Q06":"3","Q08":"2","Q10":"1","Q01":"3","Q02":"3","Q05":"3","Q03":"3","Q04":"3","Q11":"2","Q09":"1","Q12":"2"},"rt":53331.30000001192,"item_order":[6,12,5,7,9,0,1,4,2,3,10,8,11],"radio_events":[4780,8790.09999999404,11468.09999999404,13639.40000000596,18985.09999999404,20084.59999999404,20895.80000001192,23372.40000000596,28865.59999999404,33983.59999999404,44079.59999999404,45243.90000000596,47291.80000001192,51110.59999999404],"key_events":[],"mouse_events":[3688.5999999940395,4780,7497.4000000059605,8790.09999999404,11468.09999999404,13639.40000000596,18985.09999999404,20084.59999999404,20895.80000001192,23372.40000000596,28865.59999999404,33983.59999999404,40912.20000001788,44079.59999999404,45243.90000000596,47291.80000001192,51110.59999999404,53329.40000000596],"straightlining":0.5384615384615384,"zigzagging":0.5833333333333334,"honeypot":0,"survey":"bisbas","trial_type":"survey-template","trial_index":3,"time_elapsed":198322,"internal_node_id":"0.0-3.0","task_version":"prescreen-v0.3","browser_interactions":0,"infrequency":0},{"responses":{"Q01":"2","Q02":"2","Q03":"2"},"rt":13952.800000011921,"radio_events":[4249.700000017881,8284.40000000596,13034.90000000596],"key_events":[],"mouse_events":[4249.700000017881,8284.40000000596,13034.90000000596,13950.90000000596],"survey":"map","page":1,"trial_type":"survey-map","trial_index":4,"time_elapsed":212281,"internal_node_id":"0.0-4.0","task_version":"prescreen-v0.3","browser_interactions":0},{"responses":{"Q04":"3","Q05":"1","Q06":"1"},"rt":15632.5,"radio_events":[4031.2999999821186,7183.0999999940395,10431.09999999404,11621,14819.899999976158],"key_events":[],"mouse_events":[4031.2999999821186,7183.0999999940395,10431.09999999404,11621,14819.899999976158,15630.59999999404],"survey":"map","page":2,"trial_type":"survey-map","trial_index":5,"time_elapsed":227921,"internal_node_id":"0.0-5.0","task_version":"prescreen-v0.3","browser_interactions":0},{"responses":{"Q07":"4","Q08":"4","Q09":"4"},"rt":30020.80000001192,"radio_events":[5290.800000011921,21242,22815.100000023842,25803,29095.80000001192],"key_events":[],"mouse_events":[5290.800000011921,21242,22815.100000023842,25803,29095.80000001192,30019.40000000596],"survey":"map","page":3,"trial_type":"survey-map","trial_index":6,"time_elapsed":257950,"internal_node_id":"0.0-6.0","task_version":"prescreen-v0.3","browser_interactions":0},{"responses":{"Q10":"2","Q11":"3","Q12":"2","Q13":"3","Q16":"0","Q14":"1","Q15":"0"},"rt":37496.40000000596,"radio_events":[5151.700000017881,6786.200000017881,9597.09999999404,20073.20000001788,24203.70000001788,33590,36112.59999999404],"key_events":[],"mouse_events":[5151.700000017881,6786.200000017881,9597.09999999404,20073.20000001788,24203.70000001788,31689.80000001192,33590,35170.90000000596,36112.59999999404,37494.80000001192],"survey":"map","page":4,"trial_type":"survey-map","trial_index":7,"time_elapsed":295453,"internal_node_id":"0.0-7.0","task_version":"prescreen-v0.3","browser_interactions":0,"infrequency":0},{"view_history":[{"page_index":0,"viewing_time":1707.5},{"page_index":1,"viewing_time":3202.4000000059605}],"rt":4911,"trial_type":"instructions","trial_index":8,"time_elapsed":300368,"internal_node_id":"0.0-8.0","task_version":"prescreen-v0.3"},{"responses":{"01":"Yes","01_ages_9":"9","01_ages_10":"10","01_ages_11":"11","01_ages_12":"12","02":"Yes","02_ages_7":"7","02_ages_8":"8","02_ages_9":"9","02_ages_10":"10","02_ages_11":"11","02_ages_12":"12","02_ages_13":"13","02_ages_14":"14","02_ages_15":"15","03":"No","04":"No","05":"No","06":"No"},"rt":52526.5,"item_order":[0,1,2,3,4,5],"radio_events":[13037.699999988079,28861.399999976158,45097.79999998212,47353.79999998212,49922.09999999404,51458.69999998808],"checkbox_events":[19220.29999998212,20384,22621.09999999404,23303.399999976158,31402.19999998808,31835.899999976158,34067.89999997616,34761.19999998808,35381.59999999404,36112.09999999404,36794.59999999404,37452.89999997616,37926.79999998212,38609,39408.5],"key_events":[],"mouse_events":[0.19999998807907104,12491.59999999404,13037.699999988079,19220.29999998212,20384,22621.09999999404,23303.399999976158,28861.399999976158,31402.19999998808,31835.899999976158,32904.09999999404,33329.69999998808,33490.29999998212,34067.89999997616,34761.19999998808,35381.59999999404,36112.09999999404,36794.59999999404,37452.89999997616,37926.79999998212,38609,39408.5,45097.79999998212,46254.29999998212,47353.79999998212,49922.09999999404,51458.69999998808,52518.79999998212],"honeypot":0,"survey":"mace","page":1,"trial_type":"survey-mace","trial_index":9,"time_elapsed":352905,"internal_node_id":"0.0-9.0","task_version":"prescreen-v0.3","browser_interactions":0},{"responses":{"01":"Yes","01_ages_9":"9","01_ages_10":"10","02":"No","03":"Yes","03_ages_8":"8","03_ages_9":"9","04":"No","05":"No","06":"No","07":"No","08":"No"},"rt":34530.80000001192,"item_order":[0,1,2,3,4,5,6,7],"radio_events":[4038.2000000178814,10893.600000023842,14632.200000017881,28983.5,29882.30000001192,30920.90000000596,32295.90000000596,33034.90000000596],"checkbox_events":[6150.700000017881,7230.700000017881,17054,17840.40000000596,19094.20000001788,21138,21957.20000001788,22863.70000001788,23082.90000000596,23550.30000001192],"key_events":[],"mouse_events":[4038.2000000178814,6150.700000017881,7230.700000017881,10893.600000023842,14632.200000017881,17054,17840.40000000596,19094.20000001788,21138,21957.20000001788,22863.70000001788,23082.90000000596,23550.30000001192,24618.90000000596,25839.40000000596,28983.5,29882.30000001192,30920.90000000596,32295.90000000596,33034.90000000596,34521.20000001788],"honeypot":0,"survey":"mace","page":2,"trial_type":"survey-mace","trial_index":10,"time_elapsed":387443,"internal_node_id":"0.0-10.0","task_version":"prescreen-v0.3","browser_interactions":0},{"responses":{"01":"No","02":"No","03":"No","04":"No"},"rt":8059.699999988079,"item_order":[0,1,2,3],"radio_events":[2854.5,5211.199999988079,5998.0999999940395,7082.699999988079],"checkbox_events":[],"key_events":[],"mouse_events":[2854.5,3593.2999999821186,5211.199999988079,5998.0999999940395,7082.699999988079,8054.4000000059605],"honeypot":0,"survey":"mace","page":3,"trial_type":"survey-mace","trial_index":11,"time_elapsed":395509,"internal_node_id":"0.0-11.0","task_version":"prescreen-v0.3","browser_interactions":0},{"responses":{"01":"No","02":"No"},"rt":8569.40000000596,"item_order":[0,1],"radio_events":[7178.199999988079,7860.800000011921],"checkbox_events":[],"key_events":[],"mouse_events":[7178.199999988079,7860.800000011921,8567.5],"honeypot":0,"survey":"mace","page":4,"trial_type":"survey-mace","trial_index":12,"time_elapsed":404083,"internal_node_id":"0.0-12.0","task_version":"prescreen-v0.3","browser_interactions":0},{"responses":{"01":"No","02":"No","03":"No","04":"No","05":"No"},"rt":18067.5,"item_order":[0,1,2,3,4],"radio_events":[7888.9000000059605,11413.90000000596,13337.800000011921,14020.700000017881,17197.5],"checkbox_events":[],"key_events":[],"mouse_events":[7888.9000000059605,10218.90000000596,10852.600000023842,11413.90000000596,12438.40000000596,13337.800000011921,14020.700000017881,14887.700000017881,16659,17197.5,18057.5],"honeypot":0,"survey":"mace","page":5,"trial_type":"survey-mace","trial_index":13,"time_elapsed":422158,"internal_node_id":"0.0-13.0","task_version":"prescreen-v0.3","browser_interactions":0},{"responses":{"01":"Yes","01_ages_7":"7","01_ages_8":"8","01_ages_9":"9","01_ages_10":"10","01_ages_11":"11","02":"Yes","02_ages_7":"7","02_ages_8":"8","02_ages_9":"9","02_ages_10":"10","02_ages_11":"11","02_ages_12":"12","02_ages_13":"13","02_ages_14":"14","03":"No","04":"Yes","04_ages_10":"10","04_ages_11":"11","04_ages_12":"12","04_ages_13":"13","05":"Yes","05_ages_8":"8","05_ages_9":"9","05_ages_10":"10"},"rt":70931.90000000596,"item_order":[0,1,2,3,4],"radio_events":[5867.800000011921,25343.5,36885.60000002384,39583.30000001192,49882.10000002384],"checkbox_events":[18978.20000001788,19800.90000000596,21660,22753,24187.20000001788,27021.5,27534.5,28166.20000001788,29024.80000001192,29643,30341.20000001788,31329,32232.20000001788,40559,41160.80000001192,42646.40000000596,45597.30000001192,67577.80000001192,69282.90000000596,69910.80000001192],"key_events":[],"mouse_events":[5867.800000011921,18978.20000001788,19800.90000000596,21660,22753,24187.20000001788,25343.5,27021.5,27534.5,28166.20000001788,29024.80000001192,29643,30341.20000001788,31329,32232.20000001788,36885.60000002384,38723.80000001192,39583.30000001192,40559,41160.80000001192,42646.40000000596,45597.30000001192,49882.10000002384,67577.80000001192,69282.90000000596,69910.80000001192,70923],"honeypot":0,"survey":"mace","page":6,"trial_type":"survey-mace","trial_index":14,"time_elapsed":493098,"internal_node_id":"0.0-14.0","task_version":"prescreen-v0.3","browser_interactions":0},{"responses":{"01":"No","02":"Yes","02_ages_6":"6","02_ages_7":"7","02_ages_8":"8","02_ages_9":"9","03":"Yes","03_ages_8":"8","03_ages_9":"9","04":"No","05":"No","06":"No","07":"No"},"rt":29151.09999999404,"item_order":[0,1,2,3,4,5,6],"radio_events":[4527.5999999940395,5964.5,17965.09999999404,25001.29999998212,26246.5,27017.29999998212,28299.29999998212],"checkbox_events":[7029.199999988079,7583.199999988079,10481.09999999404,12944.59999999404,19012.19999998808,19768.19999998808],"key_events":[],"mouse_events":[4527.5999999940395,5964.5,7029.199999988079,7583.199999988079,10481.09999999404,12944.59999999404,17965.09999999404,19012.19999998808,19768.19999998808,23459,25001.29999998212,26246.5,27017.29999998212,28299.29999998212,29143.29999998212],"honeypot":0,"survey":"mace","page":7,"trial_type":"survey-mace","trial_index":15,"time_elapsed":522257,"internal_node_id":"0.0-15.0","task_version":"prescreen-v0.3","browser_interactions":0},{"responses":{"01":"No","02":"No","03":"No","04":"No"},"rt":10263.5,"item_order":[0,1,2,3],"radio_events":[3900.2999999821186,5169.699999988079,6675.4000000059605,9591.199999988079],"checkbox_events":[],"key_events":[],"mouse_events":[3900.2999999821186,5169.699999988079,6675.4000000059605,8209.59999999404,9591.199999988079,10258],"honeypot":0,"survey":"mace","page":8,"trial_type":"survey-mace","trial_index":16,"time_elapsed":532526,"internal_node_id":"0.0-16.0","task_version":"prescreen-v0.3","browser_interactions":0},{"responses":{"01":"Yes","01_ages_1":"1","01_ages_2":"2","01_ages_3":"3","01_ages_4":"4","01_ages_5":"5","01_ages_6":"6","01_ages_7":"7","01_ages_8":"8","01_ages_9":"9","01_ages_10":"10","01_ages_11":"11","01_ages_12":"12","01_ages_13":"13","01_ages_14":"14","01_ages_15":"15","01_ages_16":"16","01_ages_17":"17","01_ages_18":"18","02":"Yes","02_ages_1":"1","02_ages_2":"2","02_ages_3":"3","02_ages_4":"4","02_ages_5":"5","02_ages_6":"6","02_ages_7":"7","02_ages_8":"8","02_ages_9":"9","02_ages_10":"10","02_ages_11":"11","02_ages_12":"12","02_ages_13":"13","02_ages_14":"14","02_ages_15":"15","02_ages_16":"16","02_ages_17":"17","02_ages_18":"18","03":"Yes","03_ages_1":"1","03_ages_2":"2","03_ages_3":"3","03_ages_4":"4","03_ages_5":"5","03_ages_6":"6","03_ages_7":"7","03_ages_8":"8","03_ages_9":"9","03_ages_10":"10","03_ages_11":"11","03_ages_12":"12","03_ages_13":"13","03_ages_14":"14","03_ages_15":"15","03_ages_16":"16","03_ages_17":"17","03_ages_18":"18","04":"Yes","04_ages_1":"1","04_ages_2":"2","04_ages_3":"3","04_ages_4":"4","04_ages_5":"5","04_ages_6":"6","04_ages_7":"7","04_ages_8":"8","04_ages_9":"9","04_ages_10":"10","04_ages_11":"11","04_ages_12":"12","04_ages_13":"13","04_ages_14":"14","04_ages_15":"15","04_ages_16":"16","04_ages_17":"17","04_ages_18":"18"},"rt":75611.59999999404,"item_order":[0,1,2,3],"radio_events":[2667.399999976158,29688.59999999404,32692.09999999404,33563.39999997616],"checkbox_events":[7970,8711.899999976158,10166,10775.59999999404,11289.59999999404,11803.899999976158,12302,12724.09999999404,13221.399999976158,13746.299999982119,14194.199999988079,14925,15447,16153.799999982119,16687.79999998212,17990.59999999404,18537.29999998212,19267.79999998212,35427.29999998212,35587.59999999404,36085.59999999404,36889,37479.79999998212,38138.59999999404,39642.29999998212,40219.39999997616,41416.09999999404,42375.5,42930.19999998808,43420.19999998808,43942.19999998808,44449,44897.89999997616,45396.29999998212,45841.79999998212,46340.09999999404,46862.39999997616,47882.5,48501.5,49191.5,49673.39999997616,50119,50633.39999997616,51163.29999998212,51661.09999999404,52127.09999999404,52600.69999998808,53324.09999999404,53886.19999998808,54540.59999999404,55199.19999998808,55825.29999998212,56372.09999999404,57030.29999998212,57535.89999997616,58098.19999998808,59009.89999997616,59498.89999997616,62880.59999999404,67594,68109.5,68604.69999998808,69054.29999998212,69568.19999998808,70067.29999998212,70564.39999997616,71045.89999997616,71544,71988.5,72455.59999999404,72945.89999997616,73395.19999998808,73893.19999998808,74439.79999998212],"key_events":[],"mouse_events":[2667.399999976158,7970,8711.899999976158,9587.899999976158,10166,10775.59999999404,11289.59999999404,11803.899999976158,12302,12724.09999999404,13221.399999976158,13746.299999982119,14194.199999988079,14925,15447,16153.799999982119,16687.79999998212,17201.79999998212,17990.59999999404,18537.29999998212,19267.79999998212,29688.59999999404,32692.09999999404,33563.39999997616,35427.29999998212,35587.59999999404,36085.59999999404,36889,37479.79999998212,38138.59999999404,38716.5,39190.59999999404,39642.29999998212,40219.39999997616,40709.09999999404,41416.09999999404,42375.5,42930.19999998808,43420.19999998808,43942.19999998808,44449,44897.89999997616,45396.29999998212,45841.79999998212,46340.09999999404,46862.39999997616,47319.89999997616,47882.5,48501.5,49191.5,49673.39999997616,50119,50633.39999997616,51163.29999998212,51661.09999999404,52127.09999999404,52600.69999998808,53324.09999999404,53886.19999998808,54540.59999999404,55199.19999998808,55825.29999998212,56372.09999999404,57030.29999998212,57535.89999997616,58098.19999998808,59009.89999997616,59498.89999997616,61932.79999998212,62880.59999999404,63350.19999998808,67594,68109.5,68604.69999998808,69054.29999998212,69568.19999998808,70067.29999998212,70564.39999997616,71045.89999997616,71544,71988.5,72455.59999999404,72945.89999997616,73395.19999998808,73893.19999998808,74439.79999998212,75605.5],"honeypot":0,"survey":"mace","page":9,"trial_type":"survey-mace","trial_index":17,"time_elapsed":608144,"internal_node_id":"0.0-17.0","task_version":"prescreen-v0.3","browser_interactions":0},{"responses":{"01":"No","02":"No","03":"No","04":"No","05":"Yes","05_ages_6":"6","05_ages_7":"7","05_ages_8":"8","05_ages_9":"9","06":"Yes","06_ages_17":"17","07":"Yes","07_ages_1":"1","07_ages_2":"2","07_ages_3":"3","07_ages_4":"4","07_ages_5":"5","07_ages_6":"6","07_ages_7":"7","07_ages_8":"8","07_ages_9":"9","07_ages_10":"10","07_ages_11":"11","07_ages_12":"12","07_ages_13":"13","07_ages_14":"14","07_ages_15":"15","07_ages_16":"16","07_ages_17":"17","07_ages_18":"18","08":"Yes","08_ages_1":"1","08_ages_2":"2","08_ages_3":"3","08_ages_4":"4","08_ages_5":"5","08_ages_6":"6","08_ages_7":"7","08_ages_8":"8","08_ages_9":"9","08_ages_10":"10","08_ages_11":"11","08_ages_12":"12","08_ages_13":"13","08_ages_14":"14","08_ages_15":"15","08_ages_16":"16","08_ages_17":"17","08_ages_18":"18"},"rt":55260.90000000596,"item_order":[0,1,2,3,4,5,6,7],"radio_events":[2367.0999999940395,3499.699999988079,5166.5,7713.5,10133.799999982119,15905.199999988079,18833.19999998808,26263,27300.59999999404],"checkbox_events":[11373.09999999404,20505,21036,21610.19999998808,23955.29999998212,29413.19999998808,30308.79999998212,30919.40000000596,31642.59999999404,32325.59999999404,32992.40000000596,33675.29999998212,34245.5,34743.40000000596,35402.29999998212,35956.69999998808,37756.09999999404,38471.40000000596,39001.29999998212,39668.29999998212,40182.19999998808,40648.09999999404,41073.90000000596,42608.29999998212,43713,44644.90000000596,45360.59999999404,46106.79999998212,46789.40000000596,47428,48335.59999999404,48898,49604.69999998808,50625.09999999404,51163.29999998212,51665.40000000596,52195.79999998212,52717.69999998808,53255.69999998808,53786,54332.29999998212],"key_events":[],"mouse_events":[2367.0999999940395,3499.699999988079,5166.5,7713.5,9323.799999982119,10133.799999982119,11373.09999999404,15905.199999988079,18134.69999998808,18833.19999998808,20505,21036,21610.19999998808,23955.29999998212,26263,27300.59999999404,29413.19999998808,30308.79999998212,30919.40000000596,31642.59999999404,32325.59999999404,32992.40000000596,33675.29999998212,34245.5,34743.40000000596,35402.29999998212,35956.69999998808,36462.90000000596,37756.09999999404,38471.40000000596,39001.29999998212,39668.29999998212,40182.19999998808,40648.09999999404,41073.90000000596,41966.69999998808,42608.29999998212,43198.69999998808,43713,44644.90000000596,45360.59999999404,46106.79999998212,46789.40000000596,47428,47902.09999999404,48335.59999999404,48898,49604.69999998808,50182.19999998808,50625.09999999404,51163.29999998212,51665.40000000596,52195.79999998212,52717.69999998808,53255.69999998808,53786,54332.29999998212,55248.19999998808],"honeypot":0,"survey":"mace","page":10,"trial_type":"survey-mace","trial_index":18,"time_elapsed":663413,"internal_node_id":"0.0-18.0","task_version":"prescreen-v0.3","browser_interactions":0,"instructed":0},{"rt":3661.7999999821186,"trial_type":"mental-health-alert","trial_index":19,"time_elapsed":667079,"internal_node_id":"0.0-19.0","task_version":"prescreen-v0.3","interactions":"[]"}]