[{"view_history":[{"page_index":0,"viewing_time":4081.899999856949},{"page_index":1,"viewing_time":4735.600000143051},{"page_index":2,"viewing_time":4568.899999856949},{"page_index":3,"viewing_time":2442.9000000953674}],"rt":15830.099999904633,"trial_type":"instructions","trial_index":0,"time_elapsed":15857,"internal_node_id":"0.0-0.0","task_version":"prescreen-v0.3"},{"rt":19167,"responses":{"age":"33","gender-categorical":"Female","gender-free-response":"","ethnicity":"Hispanic or Latino","race":["White"],"education":"Some college"},"trial_type":"survey-demo","trial_index":1,"time_elapsed":35031,"internal_node_id":"0.0-1.0","task_version":"prescreen-v0.3"},{"responses":{"Q18":"3","Q09":"2","Q08":"1","Q11":"2","Q12":"1","Q20":"1","Q07":"0","Q13":"3","Q01":"3","Q04":"2","Q03":"1","Q05":"1","Q16":"3","Q06":"1","Q10":"1","Q17":"1","Q14":"2","Q19":"1","Q02":"2","Q15":"3","Q21":"3"},"rt":159865.59999990463,"item_order":[17,8,7,10,11,19,6,12,0,3,2,4,15,5,9,16,13,18,1,14,20],"radio_events":[8917.5,15335.299999952316,22748.299999952316,26495.5,33796.200000047684,38573,40031.200000047684,49564.09999990463,55745.09999990463,59024.89999985695,70066.89999985695,75326.59999990463,78429.5,85097.59999990463,90144.5,97916.20000004768,108123.29999995232,115456.29999995232,119537.09999990463,126759.89999985695,136182.79999995232,142487.70000004768,153223.59999990463,158425.59999990463],"key_events":[],"mouse_events":[7938.700000047684,8917.5,15335.299999952316,22081.700000047684,22748.299999952316,25919.5,26495.5,33796.200000047684,38573,39286.299999952316,40031.200000047684,49564.09999990463,55745.09999990463,59024.89999985695,67900.79999995232,68438.5,69139.70000004768,70066.89999985695,75326.59999990463,78429.5,84625.5,85097.59999990463,90144.5,97916.20000004768,108123.29999995232,114351,115456.29999995232,119537.09999990463,126759.89999985695,134764,135572.79999995232,136182.79999995232,142487.70000004768,153223.59999990463,157294,157949.70000004768,158425.59999990463,159863.5],"straightlining":0.42857142857142855,"zigzagging":0.6,"honeypot":0,"survey":"sns","trial_type":"survey-template","trial_index":2,"time_elapsed":194904,"internal_node_id":"0.0-2.0","task_version":"prescreen-v0.3","browser_interactions":0,"infrequency":0},{"responses":{"Q10":"0","Q09":"0","Q04":"3","Q12":"0","Q08":"2","Q13":"0","Q06":"2","Q03":"2","Q02":"2","Q05":"2","Q11":"1","Q07":"2","Q01":"3"},"rt":86421.20000004768,"item_order":[9,8,3,11,7,12,5,2,1,4,10,6,0],"radio_events":[6564,9319.100000143051,19061.60000014305,26328.60000014305,30616.700000047684,37959.5,43632.60000014305,49922.299999952316,55268.299999952316,63495.200000047684,72364.29999995232,77165,85292],"key_events":[],"mouse_events":[6564,9319.100000143051,16089.900000095367,16970.5,19061.60000014305,26328.60000014305,30616.700000047684,36777.700000047684,37959.5,42542.90000009537,43632.60000014305,49922.299999952316,54502.10000014305,55268.299999952316,61276.200000047684,62548.200000047684,63495.200000047684,72364.29999995232,77165,84364.10000014305,85292,86419.79999995232],"straightlining":0.46153846153846156,"zigzagging":0.4166666666666667,"honeypot":0,"survey":"bisbas","trial_type":"survey-template","trial_index":3,"time_elapsed":281330,"internal_node_id":"0.0-3.0","task_version":"prescreen-v0.3","browser_interactions":0,"infrequency":0},{"responses":{"Q01":"2","Q02":"1","Q03":"2"},"rt":28961.200000047684,"radio_events":[10719.599999904633,16977.400000095367,25814.400000095367],"key_events":[],"mouse_events":[10719.599999904633,16977.400000095367,25814.400000095367,28960.599999904633],"survey":"map","page":1,"trial_type":"survey-map","trial_index":4,"time_elapsed":310296,"internal_node_id":"0.0-4.0","task_version":"prescreen-v0.3","browser_interactions":0},{"responses":{"Q04":"3","Q05":"2","Q06":"2"},"rt":40283.60000014305,"radio_events":[8539.900000095367,25439.700000047684,30548.60000014305],"key_events":[],"mouse_events":[8539.900000095367,25439.700000047684,30548.60000014305,40282.60000014305],"survey":"map","page":2,"trial_type":"survey-map","trial_index":5,"time_elapsed":350583,"internal_node_id":"0.0-5.0","task_version":"prescreen-v0.3","browser_interactions":0},{"responses":{"Q07":"4","Q08":"0","Q09":"3"},"rt":27732.10000014305,"radio_events":[7981.700000047684,13305.299999952316,25197.400000095367],"key_events":[],"mouse_events":[7082.400000095367,7981.700000047684,13305.299999952316,23884.299999952316,24694.299999952316,25197.400000095367,27731.700000047684],"survey":"map","page":3,"trial_type":"survey-map","trial_index":6,"time_elapsed":378317,"internal_node_id":"0.0-6.0","task_version":"prescreen-v0.3","browser_interactions":0},{"responses":{"Q10":"1","Q11":"0","Q12":"1","Q13":"2","Q16":"0","Q14":"1","Q15":"2"},"rt":83388.20000004768,"radio_events":[23839.700000047684,25572.700000047684,30576.5,39269.5,51918.40000009537,62853.300000190735,71395.30000019073,80060.90000009537,81190.90000009537],"key_events":[],"mouse_events":[22195.5,22735.60000014305,23839.700000047684,24807.800000190735,25202.5,25572.700000047684,30576.5,38460.300000190735,39269.5,51387.300000190735,51918.40000009537,62302.200000047684,62853.300000190735,71395.30000019073,79000.20000004768,79456.80000019073,80060.90000009537,81190.90000009537,83386.90000009537],"survey":"map","page":4,"trial_type":"survey-map","trial_index":7,"time_elapsed":461709,"internal_node_id":"0.0-7.0","task_version":"prescreen-v0.3","browser_interactions":0,"infrequency":0},{"view_history":[{"page_index":0,"viewing_time":2951.5},{"page_index":1,"viewing_time":7220}],"rt":10172.299999952316,"trial_type":"instructions","trial_index":8,"time_elapsed":471883,"internal_node_id":"0.0-8.0","task_version":"prescreen-v0.3"},{"responses":{"01":"No","02":"No","03":"No","04":"No","05":"No","06":"No"},"rt":32139.299999952316,"item_order":[0,1,2,3,4,5],"radio_events":[12629.899999856949,16464.5,21179.5,24054.39999985695,27170.39999985695,30812.199999809265],"checkbox_events":[],"key_events":[],"mouse_events":[0.09999990463256836,12629.899999856949,16464.5,21179.5,24054.39999985695,27170.39999985695,30812.199999809265,32136.5],"honeypot":0,"survey":"mace","page":1,"trial_type":"survey-mace","trial_index":9,"time_elapsed":504031,"internal_node_id":"0.0-9.0","task_version":"prescreen-v0.3","browser_interactions":0},{"responses":{"01":"No","02":"No","03":"Yes","03_ages_4":"4","03_ages_5":"5","03_ages_6":"6","03_ages_7":"7","03_ages_8":"8","03_ages_9":"9","03_ages_10":"10","03_ages_11":"11","03_ages_12":"12","03_ages_13":"13","03_ages_14":"14","03_ages_15":"15","04":"Yes","04_ages_4":"4","04_ages_5":"5","04_ages_6":"6","04_ages_7":"7","05":"Yes","05_ages_7":"7","05_ages_8":"8","05_ages_9":"9","05_ages_10":"10","05_ages_11":"11","05_ages_12":"12","05_ages_13":"13","05_ages_14":"14","06":"Yes","06_ages_3":"3","06_ages_4":"4","06_ages_5":"5","07":"Yes","07_ages_4":"4","07_ages_5":"5","07_ages_6":"6","07_ages_7":"7","08":"Yes","08_ages_4":"4","08_ages_5":"5","08_ages_6":"6","08_ages_7":"7"},"rt":208500.59999990463,"item_order":[0,1,2,3,4,5,6,7],"radio_events":[6438.5,10886.5,14481.599999904633,53226.700000047684,67387.59999990463,104792.09999990463,107779.20000004768,108180.39999985695,129905.89999985695,144985.70000004768,185304.09999990463],"checkbox_events":[21072.599999904633,24618.39999985695,25235.200000047684,26159.299999952316,26892.099999904633,27476.89999985695,27959.5,28318.099999904633,29322.099999904633,29704,30299.700000047684,30924.200000047684,32584,55421.700000047684,55935.59999990463,56820.799999952316,57356.799999952316,57790.59999990463,61247.59999990463,71045.5,73940.70000004768,76701.59999990463,79327.39999985695,79705.5,80250.39999985695,80813.5,81187.5,81782.70000004768,82136.39999985695,83622.59999990463,84026.39999985695,86253.5,90553.29999995232,92487.5,139785.79999995232,140957.79999995232,141470.79999995232,153913.59999990463,155321.59999990463,156295.70000004768,156783.70000004768,189229.09999990463,190032,191153.09999990463,192907.20000004768],"key_events":[],"mouse_events":[6438.5,10886.5,14481.599999904633,21072.599999904633,24618.39999985695,25235.200000047684,26159.299999952316,26892.099999904633,27476.89999985695,27959.5,28318.099999904633,28685.200000047684,29322.099999904633,29704,30299.700000047684,30924.200000047684,32584,53226.700000047684,55421.700000047684,55935.59999990463,56345.89999985695,56820.799999952316,57356.799999952316,57790.59999990463,60327.59999990463,61247.59999990463,67387.59999990463,71045.5,71444.39999985695,73940.70000004768,76701.59999990463,79327.39999985695,79705.5,80250.39999985695,80813.5,81187.5,81782.70000004768,82136.39999985695,82540.39999985695,83198.39999985695,83622.59999990463,84026.39999985695,86253.5,90047.5,90553.29999995232,92487.5,104792.09999990463,107779.20000004768,108180.39999985695,129905.89999985695,139785.79999995232,140446.70000004768,140957.79999995232,141470.79999995232,144985.70000004768,153913.59999990463,155321.59999990463,156295.70000004768,156783.70000004768,185304.09999990463,188168.09999990463,188763.09999990463,189229.09999990463,190032,191153.09999990463,192907.20000004768,208496.70000004768],"honeypot":0,"survey":"mace","page":2,"trial_type":"survey-mace","trial_index":10,"time_elapsed":712538,"internal_node_id":"0.0-10.0","task_version":"prescreen-v0.3","browser_interactions":0},{"responses":{"01":"Yes","01_ages_10":"10","02":"No","03":"No","04":"No"},"rt":42167.90000009537,"item_order":[0,1,2,3],"radio_events":[7997.400000095367,22797.200000047684,26789.60000014305,30074.60000014305],"checkbox_events":[16720.400000095367],"key_events":[],"mouse_events":[7997.400000095367,16720.400000095367,22797.200000047684,26789.60000014305,30074.60000014305,42166.10000014305],"honeypot":0,"survey":"mace","page":3,"trial_type":"survey-mace","trial_index":11,"time_elapsed":754710,"internal_node_id":"0.0-11.0","task_version":"prescreen-v0.3","browser_interactions":0},{"responses":{"01":"Yes","01_ages_6":"6","01_ages_7":"7","01_ages_8":"8","02":"Yes","02_ages_6":"6","02_ages_7":"7","02_ages_8":"8"},"rt":55572.200000047684,"item_order":[0,1],"radio_events":[10167.700000047684,49031.200000047684],"checkbox_events":[19496.60000014305,20125.400000095367,20673.5,21238.400000095367,24778.5,42599.299999952316,46973.200000047684,51250.200000047684,51808.10000014305,52310.200000047684],"key_events":[],"mouse_events":[10167.700000047684,19496.60000014305,20125.400000095367,20673.5,21238.400000095367,24778.5,42599.299999952316,46973.200000047684,49031.200000047684,51250.200000047684,51808.10000014305,52310.200000047684,55571.299999952316],"honeypot":0,"survey":"mace","page":4,"trial_type":"survey-mace","trial_index":12,"time_elapsed":810285,"internal_node_id":"0.0-12.0","task_version":"prescreen-v0.3","browser_interactions":0},{"responses":{"01":"No","02":"No","03":"No","04":"No","05":"No"},"rt":49068.10000014305,"item_order":[0,1,2,3,4],"radio_events":[30115.400000095367,35875.10000014305,41774,44675.10000014305,47408.10000014305],"checkbox_events":[],"key_events":[],"mouse_events":[30115.400000095367,35875.10000014305,41774,44071,44675.10000014305,47408.10000014305,49065.90000009537],"honeypot":0,"survey":"mace","page":5,"trial_type":"survey-mace","trial_index":13,"time_elapsed":859357,"internal_node_id":"0.0-13.0","task_version":"prescreen-v0.3","browser_interactions":0},{"responses":{"01":"Yes","01_ages_12":"12","01_ages_13":"13","01_ages_14":"14","02":"Yes","02_ages_14":"14","03":"Yes","03_ages_14":"14","04":"No","05":"No"},"rt":94622.39999985695,"item_order":[0,1,2,3,4],"radio_events":[20594.599999904633,58425,69736.09999990463,88106.29999995232,92396.79999995232],"checkbox_events":[24688.799999952316,25970.099999904633,38125.39999985695,62429.09999990463,71778.09999990463,73500.89999985695,74751.09999990463],"key_events":[],"mouse_events":[20594.599999904633,22353.799999952316,24688.799999952316,25970.099999904633,38125.39999985695,58024.199999809265,58425,62429.09999990463,69736.09999990463,71778.09999990463,73081,73500.89999985695,74751.09999990463,88106.29999995232,92396.79999995232,94619.89999985695],"honeypot":0,"survey":"mace","page":6,"trial_type":"survey-mace","trial_index":14,"time_elapsed":953984,"internal_node_id":"0.0-14.0","task_version":"prescreen-v0.3","browser_interactions":0},{"responses":{"01":"No","02":"No","03":"No","04":"No","05":"No","06":"No","07":"No"},"rt":26904.099999904633,"item_order":[0,1,2,3,4,5,6],"radio_events":[8538.299999952316,10399.099999904633,13649.199999809265,16378.699999809265,20080.099999904633,22070,23704],"checkbox_events":[],"key_events":[],"mouse_events":[5074.199999809265,8538.299999952316,10399.099999904633,13649.199999809265,16378.699999809265,20080.099999904633,22070,23704,26901],"honeypot":0,"survey":"mace","page":7,"trial_type":"survey-mace","trial_index":15,"time_elapsed":980893,"internal_node_id":"0.0-15.0","task_version":"prescreen-v0.3","browser_interactions":0},{"responses":{"01":"No","02":"No","03":"No","04":"No"},"rt":44098.90000009537,"item_order":[0,1,2,3],"radio_events":[13621,21645.200000047684,31155,43353.200000047684],"checkbox_events":[],"key_events":[],"mouse_events":[13621,21645.200000047684,31155,42662.90000009537,43353.200000047684,44096.90000009537],"honeypot":0,"survey":"mace","page":8,"trial_type":"survey-mace","trial_index":16,"time_elapsed":1024996,"internal_node_id":"0.0-16.0","task_version":"prescreen-v0.3","browser_interactions":0},{"responses":{"01":"Yes","01_ages_1":"1","01_ages_2":"2","01_ages_3":"3","01_ages_4":"4","01_ages_5":"5","01_ages_6":"6","01_ages_7":"7","01_ages_8":"8","01_ages_9":"9","01_ages_10":"10","01_ages_11":"11","01_ages_12":"12","01_ages_13":"13","01_ages_14":"14","01_ages_15":"15","01_ages_16":"16","01_ages_17":"17","01_ages_18":"18","02":"Yes","02_ages_1":"1","02_ages_2":"2","02_ages_3":"3","02_ages_4":"4","02_ages_5":"5","02_ages_6":"6","02_ages_7":"7","02_ages_8":"8","02_ages_9":"9","02_ages_10":"10","02_ages_11":"11","02_ages_12":"12","02_ages_13":"13","02_ages_14":"14","02_ages_15":"15","02_ages_16":"16","02_ages_17":"17","02_ages_18":"18","03":"Yes","03_ages_1":"1","03_ages_2":"2","03_ages_3":"3","03_ages_7":"7","03_ages_8":"8","03_ages_9":"9","03_ages_10":"10","03_ages_11":"11","03_ages_12":"12","03_ages_13":"13","03_ages_14":"14","04":"Yes","04_ages_1":"1","04_ages_2":"2","04_ages_3":"3","04_ages_4":"4","04_ages_5":"5","04_ages_6":"6","04_ages_7":"7","04_ages_8":"8","04_ages_9":"9","04_ages_10":"10","04_ages_11":"11","04_ages_12":"12","04_ages_13":"13","04_ages_14":"14","04_ages_15":"15","04_ages_16":"16","04_ages_17":"17","04_ages_18":"18"},"rt":89749.5,"item_order":[0,1,2,3],"radio_events":[4333.700000047684,20637.299999952316,36581,79143.79999995232],"checkbox_events":[8962.599999904633,9580.399999856949,9956.399999856949,10307.700000047684,10589.5,10927.399999856949,11315.399999856949,11943.399999856949,12251.399999856949,12630.399999856949,13066.399999856949,13603.399999856949,13925.5,14372.299999952316,14751.5,15103.599999904633,15516.399999856949,15863.399999856949,21940.299999952316,22280.39999985695,22646.299999952316,23406.099999904633,23780.200000047684,24016.39999985695,24598.299999952316,25498.299999952316,25859.299999952316,26478.200000047684,26885.299999952316,27273.200000047684,27852.299999952316,28219.200000047684,28679.299999952316,29975.39999985695,30387.099999904633,30865.200000047684,31219.200000047684,31501.599999904633,43798,45442,46012,50001.200000047684,50382.09999990463,50977.89999985695,51326.799999952316,51993.89999985695,52642.89999985695,53179.89999985695,53696.89999985695,54017.89999985695,54422.799999952316,58147,58857.89999985695,80218.5,80797.70000004768,81307,82463.5,82744.5,83240.59999990463,83575.39999985695,84513.5,84903.5,85383.70000004768,86027.5,86456.5,86863.39999985695,87201.39999985695,87696.39999985695,88154.5,88666.5,89073.39999985695],"key_events":[],"mouse_events":[4333.700000047684,8962.599999904633,9580.399999856949,9956.399999856949,10307.700000047684,10589.5,10927.399999856949,11315.399999856949,11943.399999856949,12251.399999856949,12630.399999856949,13066.399999856949,13603.399999856949,13925.5,14372.299999952316,14751.5,15103.599999904633,15516.399999856949,15863.399999856949,20637.299999952316,21940.299999952316,22280.39999985695,22646.299999952316,23406.099999904633,23780.200000047684,24016.39999985695,24598.299999952316,25030.099999904633,25498.299999952316,25859.299999952316,26478.200000047684,26885.299999952316,27273.200000047684,27852.299999952316,28219.200000047684,28679.299999952316,29387.200000047684,29638.200000047684,29975.39999985695,30387.099999904633,30865.200000047684,31219.200000047684,31501.599999904633,36581,43798,44973.89999985695,45442,46012,50001.200000047684,50382.09999990463,50977.89999985695,51326.799999952316,51657.89999985695,51993.89999985695,52642.89999985695,53179.89999985695,53696.89999985695,54017.89999985695,54422.799999952316,58147,58857.89999985695,77880.79999995232,79143.79999995232,80218.5,80797.70000004768,81307,82009.5,82463.5,82744.5,83240.59999990463,83575.39999985695,84009.20000004768,84283.29999995232,84513.5,84903.5,85383.70000004768,86027.5,86456.5,86863.39999985695,87201.39999985695,87696.39999985695,88154.5,88666.5,89073.39999985695,89747.70000004768],"honeypot":0,"survey":"mace","page":9,"trial_type":"survey-mace","trial_index":17,"time_elapsed":1114750,"internal_node_id":"0.0-17.0","task_version":"prescreen-v0.3","browser_interactions":0},{"responses":{"01":"No","02":"No","03":"No","04":"Yes","04_ages_14":"14","04_ages_15":"15","04_ages_16":"16","04_ages_17":"17","04_ages_18":"18","05":"No","06":"Yes","06_ages_17":"17","07":"Yes","07_ages_1":"1","07_ages_2":"2","07_ages_3":"3","07_ages_4":"4","07_ages_5":"5","07_ages_6":"6","07_ages_7":"7","07_ages_8":"8","07_ages_9":"9","07_ages_10":"10","07_ages_11":"11","07_ages_12":"12","07_ages_13":"13","07_ages_14":"14","07_ages_15":"15","07_ages_16":"16","07_ages_17":"17","07_ages_18":"18","08":"Yes","08_ages_1":"1","08_ages_2":"2","08_ages_3":"3","08_ages_4":"4","08_ages_5":"5","08_ages_6":"6","08_ages_7":"7","08_ages_8":"8","08_ages_9":"9","08_ages_10":"10","08_ages_11":"11","08_ages_12":"12","08_ages_13":"13"},"rt":138837.20000004768,"item_order":[0,1,2,3,4,5,6,7],"radio_events":[3577.2000000476837,7992.900000095367,10669.900000095367,17478.60000014305,34371.40000009537,36436.5,48626.10000014305,83451.79999995232],"checkbox_events":[27235.60000014305,27966.5,28565.799999952316,29027.5,29373.60000014305,38831.60000014305,70391.10000014305,71284.5,71670.90000009537,72640,73067,73652.90000009537,74278.90000009537,75537.10000014305,75934.90000009537,76395.10000014305,76922.90000009537,77297.90000009537,77701.90000009537,78213.10000014305,78570,78879,79926,80249,88832.90000009537,89288.79999995232,89722.79999995232,94166.70000004768,100431.90000009537,101383.60000014305,101818.70000004768,116662.60000014305,117610.60000014305,131223.29999995232,132367.5,133302.40000009537,134086.40000009537],"key_events":[],"mouse_events":[3577.2000000476837,7992.900000095367,10669.900000095367,17478.60000014305,27235.60000014305,27966.5,28565.799999952316,29027.5,29373.60000014305,34371.40000009537,36436.5,38831.60000014305,48626.10000014305,69788.10000014305,70391.10000014305,70698.79999995232,71284.5,71670.90000009537,72188.90000009537,72640,73067,73652.90000009537,74278.90000009537,74955.79999995232,75537.10000014305,75934.90000009537,76395.10000014305,76922.90000009537,77297.90000009537,77701.90000009537,78213.10000014305,78570,78879,79194.20000004768,79926,80249,83451.79999995232,88832.90000009537,89288.79999995232,89722.79999995232,94166.70000004768,100431.90000009537,100783.60000014305,101383.60000014305,101818.70000004768,116662.60000014305,117610.60000014305,130429.29999995232,131223.29999995232,131600,132367.5,132753.40000009537,133302.40000009537,133627.29999995232,134086.40000009537,138833.29999995232],"honeypot":0,"survey":"mace","page":10,"trial_type":"survey-mace","trial_index":18,"time_elapsed":1253593,"internal_node_id":"0.0-18.0","task_version":"prescreen-v0.3","browser_interactions":0,"instructed":0},{"rt":11390.099999904633,"trial_type":"mental-health-alert","trial_index":19,"time_elapsed":1264985,"internal_node_id":"0.0-19.0","task_version":"prescreen-v0.3","interactions":"[]"}]