[{"view_history":[{"page_index":0,"viewing_time":2988.7999999523163},{"page_index":1,"viewing_time":2674.899999856949},{"page_index":2,"viewing_time":2491.800000190735},{"page_index":3,"viewing_time":885.3999998569489}],"rt":9043.299999952316,"trial_type":"instructions","trial_index":0,"time_elapsed":9059,"internal_node_id":"0.0-0.0","task_version":"prescreen-v0.3"},{"rt":17233.200000047684,"responses":{"age":"25","gender-categorical":"Male","gender-free-response":"","ethnicity":"Not Hispanic or Latino","race":["Asian"],"education":"Bachelor degree","siblings":"0"},"trial_type":"survey-demo","trial_index":1,"time_elapsed":26328,"internal_node_id":"0.0-1.0","task_version":"prescreen-v0.3"},{"responses":{"Q13":"2","Q18":"3","Q21":"3","Q01":"3","Q19":"1","Q08":"3","Q06":"2","Q14":"1","Q02":"3","Q20":"0","Q05":"2","Q12":"2","Q09":"3","Q07":"1","Q03":"1","Q04":"3","Q16":"0","Q15":"3","Q17":"2","Q11":"3","Q10":"3"},"rt":90890.29999995232,"item_order":[12,17,20,0,18,7,5,13,1,19,4,11,8,6,2,3,15,14,16,10,9],"radio_events":[5866,9057.200000047684,10062.899999856949,13723.700000047684,14890.099999904633,19990.799999952316,22113.39999985695,25724.700000047684,31552.200000047684,40276.89999985695,42341.09999990463,47942.5,49550.799999952316,52531.299999952316,55268.39999985695,58810.09999990463,62540.39999985695,67918.89999985695,72689.5,76712.39999985695,80610.39999985695,87097.09999990463,89260.5],"key_events":[],"mouse_events":[5866,7409.399999856949,8004.700000047684,9057.200000047684,10062.899999856949,13723.700000047684,14577,14890.099999904633,19990.799999952316,22113.39999985695,25724.700000047684,31552.200000047684,40276.89999985695,42341.09999990463,47942.5,49192.799999952316,49550.799999952316,52531.299999952316,55268.39999985695,58810.09999990463,61217.59999990463,62540.39999985695,67918.89999985695,71622.29999995232,72168.70000004768,72689.5,75578.09999990463,75896.89999985695,76341.09999990463,76712.39999985695,80610.39999985695,87097.09999990463,89260.5,90881.20000004768],"straightlining":0.47619047619047616,"zigzagging":0.45,"honeypot":0,"survey":"sns","trial_type":"survey-template","trial_index":2,"time_elapsed":117240,"internal_node_id":"0.0-2.0","task_version":"prescreen-v0.3","browser_interactions":0,"infrequency":0},{"responses":{"Q05":"3","Q03":"2","Q12":"1","Q06":"3","Q11":"3","Q08":"3","Q10":"2","Q04":"3","Q02":"2","Q09":"2","Q07":"3","Q01":"3","Q13":"0"},"rt":54690.799999952316,"item_order":[4,2,11,5,10,7,9,3,1,8,6,0,12],"radio_events":[2994.899999856949,15636.099999904633,17854.799999952316,19421.699999809265,22211.39999985695,23972.5,25463.39999985695,28264,38761.5,40315.799999952316,44278.299999952316,45821.699999809265,48192.09999990463],"key_events":[],"mouse_events":[2994.899999856949,15636.099999904633,17854.799999952316,19421.699999809265,22211.39999985695,23972.5,25463.39999985695,27898.299999952316,28264,38761.5,40315.799999952316,44278.299999952316,45821.699999809265,48192.09999990463,54685.5],"straightlining":0.5384615384615384,"zigzagging":0.5833333333333334,"honeypot":0,"survey":"bisbas","trial_type":"survey-template","trial_index":3,"time_elapsed":171950,"internal_node_id":"0.0-3.0","task_version":"prescreen-v0.3","browser_interactions":0,"infrequency":0},{"responses":{"Q01":"3","Q02":"1","Q03":"2"},"rt":15786.400000095367,"radio_events":[4590.799999952316,5383.700000047684,8846.400000095367,12632.600000143051],"key_events":[],"mouse_events":[4590.799999952316,5383.700000047684,8846.400000095367,12632.600000143051,15783.900000095367],"survey":"map","page":1,"trial_type":"survey-map","trial_index":4,"time_elapsed":187760,"internal_node_id":"0.0-4.0","task_version":"prescreen-v0.3","browser_interactions":0},{"responses":{"Q04":"2","Q05":"2","Q06":"2"},"rt":18636.699999809265,"radio_events":[11122.399999856949,14324.699999809265,16032.699999809265],"key_events":[],"mouse_events":[11122.399999856949,14016.099999904633,14324.699999809265,16032.699999809265,18634.599999904633],"survey":"map","page":2,"trial_type":"survey-map","trial_index":5,"time_elapsed":206413,"internal_node_id":"0.0-5.0","task_version":"prescreen-v0.3","browser_interactions":0},{"responses":{"Q07":"0","Q08":"0","Q09":"2"},"rt":10030.399999856949,"radio_events":[3844.2000000476837,5723.299999952316,7945.799999952316],"key_events":[],"mouse_events":[3844.2000000476837,5723.299999952316,7945.799999952316,10028.099999904633],"survey":"map","page":3,"trial_type":"survey-map","trial_index":6,"time_elapsed":216462,"internal_node_id":"0.0-6.0","task_version":"prescreen-v0.3","browser_interactions":0},{"responses":{"Q10":"0","Q11":"0","Q12":"1","Q13":"2","Q16":"0","Q14":"2","Q15":"2"},"rt":33915.200000047684,"radio_events":[6202.600000143051,9946.300000190735,12614.900000095367,14155.900000095367,14896.400000095367,20104.800000190735,22430.5,25114.300000190735,26178.700000047684,27829.800000190735,30251.5],"key_events":[],"mouse_events":[5778.300000190735,6202.600000143051,9946.300000190735,12614.900000095367,14155.900000095367,14620.100000143051,14896.400000095367,19716.60000014305,20104.800000190735,22430.5,25114.300000190735,26178.700000047684,27587.700000047684,27829.800000190735,30251.5,33911],"survey":"map","page":4,"trial_type":"survey-map","trial_index":7,"time_elapsed":250397,"internal_node_id":"0.0-7.0","task_version":"prescreen-v0.3","browser_interactions":0,"infrequency":0},{"view_history":[{"page_index":0,"viewing_time":1673.7000000476837},{"page_index":1,"viewing_time":3592.7999999523163}],"rt":5268.799999952316,"trial_type":"instructions","trial_index":8,"time_elapsed":255680,"internal_node_id":"0.0-8.0","task_version":"prescreen-v0.3"},{"responses":{"01":"Yes","01_ages_13":"13","01_ages_14":"14","01_ages_15":"15","02":"Yes","02_ages_10":"10","02_ages_11":"11","02_ages_12":"12","02_ages_13":"13","02_ages_14":"14","03":"No","04":"No","05":"No","06":"Yes","06_ages_8":"8","06_ages_9":"9","06_ages_10":"10","06_ages_11":"11"},"rt":50832.40000009537,"item_order":[0,1,2,3,4,5],"radio_events":[7449.300000190735,21357.300000190735,29646,32084.200000047684,33666.300000190735,39349],"checkbox_events":[15664.900000095367,15994,16357.200000047684,24442.200000047684,24939.400000095367,25929.700000047684,26271,27147.400000095367,40669,41024.40000009537,41425.40000009537,41816.200000047684],"key_events":[],"mouse_events":[0.3000001907348633,7449.300000190735,15664.900000095367,15994,16357.200000047684,21357.300000190735,24442.200000047684,24939.400000095367,25929.700000047684,26271,27147.400000095367,29646,32084.200000047684,33666.300000190735,39349,40669,41024.40000009537,41425.40000009537,41816.200000047684,50820.10000014305],"honeypot":0,"survey":"mace","page":1,"trial_type":"survey-mace","trial_index":9,"time_elapsed":306542,"internal_node_id":"0.0-9.0","task_version":"prescreen-v0.3","browser_interactions":0},{"responses":{"01":"No","02":"No","03":"No","04":"No","05":"Yes","05_ages_9":"9","05_ages_10":"10","05_ages_11":"11","06":"No","07":"No","08":"No"},"rt":24557.5,"item_order":[0,1,2,3,4,5,6,7],"radio_events":[2921.5,5431.299999952316,8270.899999856949,8744.199999809265,11993.199999809265,19966.5,20952.89999985695,22117.299999952316],"checkbox_events":[13052.699999809265,13476.199999809265,13815.299999952316,14750.799999952316,15499.099999904633,16470.099999904633,17450.599999904633],"key_events":[],"mouse_events":[2921.5,5431.299999952316,8270.899999856949,8744.199999809265,11424.899999856949,11993.199999809265,13052.699999809265,13476.199999809265,13815.299999952316,14203.399999856949,14750.799999952316,15499.099999904633,16470.099999904633,17450.599999904633,19966.5,20952.89999985695,22117.299999952316,24540.89999985695],"honeypot":0,"survey":"mace","page":2,"trial_type":"survey-mace","trial_index":10,"time_elapsed":331133,"internal_node_id":"0.0-10.0","task_version":"prescreen-v0.3","browser_interactions":0},{"responses":{"01":"No","02":"No","03":"No","04":"No"},"rt":18855.299999952316,"item_order":[0,1,2,3],"radio_events":[7355,9977.299999952316,11325.5,13078],"checkbox_events":[],"key_events":[],"mouse_events":[7355,9977.299999952316,11325.5,13078,18846.60000014305],"honeypot":0,"survey":"mace","page":3,"trial_type":"survey-mace","trial_index":11,"time_elapsed":350009,"internal_node_id":"0.0-11.0","task_version":"prescreen-v0.3","browser_interactions":0},{"responses":{"01":"No","02":"No"},"rt":7532.599999904633,"item_order":[0,1],"radio_events":[5092.099999904633,5742.799999952316],"checkbox_events":[],"key_events":[],"mouse_events":[5092.099999904633,5742.799999952316,7527.899999856949],"honeypot":0,"survey":"mace","page":4,"trial_type":"survey-mace","trial_index":12,"time_elapsed":357560,"internal_node_id":"0.0-12.0","task_version":"prescreen-v0.3","browser_interactions":0},{"responses":{"01":"No","02":"No","03":"No","04":"No","05":"No"},"rt":14852.799999952316,"item_order":[0,1,2,3,4],"radio_events":[5357.700000047684,6524.5,8926.799999952316,10920.700000047684,12453.599999904633],"checkbox_events":[],"key_events":[],"mouse_events":[5357.700000047684,6524.5,8926.799999952316,10920.700000047684,12046,12453.599999904633,14841.799999952316],"honeypot":0,"survey":"mace","page":5,"trial_type":"survey-mace","trial_index":13,"time_elapsed":372435,"internal_node_id":"0.0-13.0","task_version":"prescreen-v0.3","browser_interactions":0},{"responses":{"01":"Yes","01_ages_11":"11","01_ages_12":"12","01_ages_13":"13","01_ages_14":"14","01_ages_15":"15","01_ages_16":"16","01_ages_17":"17","02":"Yes","02_ages_12":"12","02_ages_13":"13","02_ages_14":"14","02_ages_15":"15","02_ages_16":"16","02_ages_17":"17","02_ages_18":"18","03":"No","04":"Yes","04_ages_12":"12","04_ages_13":"13","04_ages_14":"14","04_ages_15":"15","04_ages_16":"16","04_ages_17":"17","04_ages_18":"18","05":"No"},"rt":46055.40000009537,"item_order":[0,1,2,3,4],"radio_events":[11023.700000047684,24201.400000095367,32960.60000014305,34761.800000190735,40326.40000009537],"checkbox_events":[14338.400000095367,14868.200000047684,15433.200000047684,16023,16463.200000047684,17917.60000014305,20513.700000047684,26633.5,27542.60000014305,28112.400000095367,28784.400000095367,29191.700000047684,29715.900000095367,30592.900000095367,35764.90000009537,36327.700000047684,36690.60000014305,37030.5,37609.800000190735,37860.60000014305,38486.5],"key_events":[],"mouse_events":[11023.700000047684,14338.400000095367,14868.200000047684,15433.200000047684,16023,16463.200000047684,17917.60000014305,20513.700000047684,24201.400000095367,26633.5,27542.60000014305,28112.400000095367,28784.400000095367,29191.700000047684,29715.900000095367,30592.900000095367,32960.60000014305,34761.800000190735,35764.90000009537,36327.700000047684,36690.60000014305,37030.5,37609.800000190735,37860.60000014305,38127.200000047684,38486.5,40326.40000009537,46044.300000190735],"honeypot":0,"survey":"mace","page":6,"trial_type":"survey-mace","trial_index":14,"time_elapsed":418508,"internal_node_id":"0.0-14.0","task_version":"prescreen-v0.3","browser_interactions":0},{"responses":{"01":"No","02":"No","03":"No","04":"No","05":"No","06":"No","07":"No"},"rt":17325.89999985695,"item_order":[0,1,2,3,4,5,6],"radio_events":[5226,5871.5,7021.399999856949,7122.399999856949,10438.399999856949,11488.200000047684,12518.399999856949,13461.799999952316,13726.5],"checkbox_events":[],"key_events":[],"mouse_events":[5226,5871.5,7021.399999856949,7122.399999856949,10438.399999856949,11488.200000047684,12518.399999856949,13055.700000047684,13461.799999952316,13726.5,17311.200000047684],"honeypot":0,"survey":"mace","page":7,"trial_type":"survey-mace","trial_index":15,"time_elapsed":435859,"internal_node_id":"0.0-15.0","task_version":"prescreen-v0.3","browser_interactions":0},{"responses":{"01":"Yes","01_ages_10":"10","01_ages_11":"11","01_ages_12":"12","01_ages_13":"13","01_ages_14":"14","01_ages_15":"15","01_ages_16":"16","01_ages_17":"17","01_ages_18":"18","02":"No","03":"Yes","03_ages_10":"10","03_ages_11":"11","03_ages_12":"12","03_ages_13":"13","03_ages_14":"14","03_ages_15":"15","03_ages_16":"16","03_ages_17":"17","03_ages_18":"18","04":"Yes","04_ages_10":"10","04_ages_11":"11","04_ages_12":"12","04_ages_13":"13","04_ages_14":"14","04_ages_15":"15","04_ages_16":"16","04_ages_17":"17","04_ages_18":"18"},"rt":52630.799999952316,"item_order":[0,1,2,3],"radio_events":[14171.700000047684,27711.5,30510.599999904633,42928.700000047684],"checkbox_events":[18053.299999952316,18455.200000047684,19097.799999952316,19686.5,20131.700000047684,20589.299999952316,21137.5,21718.200000047684,22132.900000095367,34674.700000047684,35576.700000047684,36223.299999952316,36532.90000009537,36823.299999952316,37157.59999990463,37499,37810.299999952316,38237.09999990463,38470.799999952316,38753,44460,44798.5,45193.799999952316,45512.5,45882.200000047684,46197.299999952316,46610.200000047684,46984.90000009537,47767.200000047684],"key_events":[],"mouse_events":[14171.700000047684,18053.299999952316,18455.200000047684,19097.799999952316,19686.5,20131.700000047684,20589.299999952316,21137.5,21718.200000047684,22132.900000095367,24359,27711.5,30510.599999904633,34674.700000047684,35576.700000047684,36223.299999952316,36532.90000009537,36823.299999952316,37157.59999990463,37499,37810.299999952316,38237.09999990463,38470.799999952316,38753,42928.700000047684,44460,44798.5,45193.799999952316,45512.5,45882.200000047684,46197.299999952316,46610.200000047684,46984.90000009537,47263.5,47767.200000047684,52622.799999952316],"honeypot":0,"survey":"mace","page":8,"trial_type":"survey-mace","trial_index":16,"time_elapsed":488510,"internal_node_id":"0.0-16.0","task_version":"prescreen-v0.3","browser_interactions":0},{"responses":{"01":"Yes","01_ages_1":"1","01_ages_2":"2","01_ages_3":"3","01_ages_4":"4","01_ages_5":"5","02":"No","03":"Yes","03_ages_1":"1","03_ages_2":"2","03_ages_3":"3","03_ages_4":"4","03_ages_5":"5","03_ages_6":"6","03_ages_7":"7","03_ages_8":"8","03_ages_9":"9","03_ages_10":"10","03_ages_11":"11","03_ages_12":"12","03_ages_13":"13","03_ages_14":"14","03_ages_15":"15","03_ages_16":"16","03_ages_17":"17","03_ages_18":"18","04":"Yes","04_ages_1":"1","04_ages_2":"2","04_ages_3":"3","04_ages_4":"4","04_ages_5":"5","04_ages_6":"6","04_ages_7":"7","04_ages_8":"8","04_ages_9":"9","04_ages_10":"10","04_ages_11":"11","04_ages_12":"12","04_ages_13":"13","04_ages_14":"14","04_ages_15":"15","04_ages_16":"16","04_ages_17":"17","04_ages_18":"18"},"rt":146637.20000004768,"item_order":[0,1,2,3],"radio_events":[31073.5,35704.700000047684,40349.59999990463,43132.5,45512.700000047684,54300.799999952316,72398.59999990463,117044.70000004768],"checkbox_events":[56655,57062.5,57428.700000047684,57824.09999990463,58127.09999990463,58529.200000047684,58857.40000009537,59159.299999952316,59482,60890.40000009537,61368.59999990463,62045.90000009537,62331,62692.700000047684,63018.700000047684,63334.200000047684,63614.90000009537,63950.200000047684,75997,76410.29999995232,76820.79999995232,77222.09999990463,77915,80992.70000004768,81473.40000009537,81935.59999990463,82584.40000009537,83169.70000004768,83857.90000009537,84755.20000004768,85275.40000009537,85806.59999990463,86337,86693.70000004768,87002.79999995232,87340.79999995232,118283,119126.59999990463,119587.79999995232,120033.59999990463,120436.70000004768],"key_events":[],"mouse_events":[31073.5,35704.700000047684,40349.59999990463,43132.5,45512.700000047684,54300.799999952316,56655,57062.5,57428.700000047684,57824.09999990463,58127.09999990463,58529.200000047684,58857.40000009537,59159.299999952316,59482,59986.299999952316,60103.09999990463,60890.40000009537,61368.59999990463,61745.299999952316,62045.90000009537,62331,62692.700000047684,63018.700000047684,63334.200000047684,63614.90000009537,63950.200000047684,72398.59999990463,75997,76410.29999995232,76820.79999995232,77222.09999990463,77915,80992.70000004768,81473.40000009537,81935.59999990463,82584.40000009537,83169.70000004768,83857.90000009537,84755.20000004768,85275.40000009537,85806.59999990463,86337,86693.70000004768,87002.79999995232,87340.79999995232,117044.70000004768,118283,118695.70000004768,119126.59999990463,119587.79999995232,120033.59999990463,120436.70000004768,146628.90000009537],"honeypot":0,"survey":"mace","page":9,"trial_type":"survey-mace","trial_index":17,"time_elapsed":635166,"internal_node_id":"0.0-17.0","task_version":"prescreen-v0.3","browser_interactions":0},{"responses":{"01":"No","02":"No","03":"No","04":"No","05":"No","06":"Yes","06_ages_17":"17","07":"Yes","07_ages_6":"6","07_ages_7":"7","07_ages_8":"8","07_ages_9":"9","07_ages_10":"10","08":"Yes","08_ages_1":"1","08_ages_2":"2","08_ages_3":"3","08_ages_4":"4","08_ages_5":"5","08_ages_6":"6","08_ages_7":"7"},"rt":59103.200000047684,"item_order":[0,1,2,3,4,5,6,7],"radio_events":[3127.0999999046326,3803.7999999523163,5133.299999952316,6539.799999952316,7985.799999952316,9319.099999904633,10647.099999904633,12913.599999904633,21516.200000047684,33736.200000047684,34721.700000047684],"checkbox_events":[14157.5,23367.599999904633,23679.5,24098.89999985695,24439.299999952316,24893.39999985695,25301.89999985695,25847.099999904633,29624.099999904633,31537.299999952316,35891.700000047684,36261.59999990463,36641.799999952316,37037.5,37480.09999990463,40791.200000047684,41324],"key_events":[],"mouse_events":[3127.0999999046326,3803.7999999523163,5133.299999952316,6539.799999952316,7985.799999952316,9319.099999904633,10647.099999904633,12913.599999904633,14157.5,21516.200000047684,23367.599999904633,23679.5,24098.89999985695,24439.299999952316,24893.39999985695,25301.89999985695,25847.099999904633,29624.099999904633,31537.299999952316,33736.200000047684,34721.700000047684,35891.700000047684,36261.59999990463,36641.799999952316,37037.5,37480.09999990463,40030.89999985695,40791.200000047684,41324,59086],"honeypot":0,"survey":"mace","page":10,"trial_type":"survey-mace","trial_index":18,"time_elapsed":694296,"internal_node_id":"0.0-18.0","task_version":"prescreen-v0.3","browser_interactions":0,"instructed":0},{"rt":5248.599999904633,"trial_type":"mental-health-alert","trial_index":19,"time_elapsed":699569,"internal_node_id":"0.0-19.0","task_version":"prescreen-v0.3","interactions":"[]"}]