[{"view_history":[{"page_index":0,"viewing_time":5555.399999999907},{"page_index":1,"viewing_time":6131},{"page_index":2,"viewing_time":5926.600000000093},{"page_index":3,"viewing_time":1248.1000000000931}],"rt":18863.5,"trial_type":"instructions","trial_index":0,"time_elapsed":19001,"internal_node_id":"0.0-0.0","task_version":"prescreen-v0.3"},{"rt":146688.8999999999,"responses":{"age":"27","gender-categorical":"Male","gender-free-response":"","ethnicity":"Hispanic or Latino","race":["Black or African American"],"education":"Bachelor degree"},"trial_type":"survey-demo","trial_index":1,"time_elapsed":165715,"internal_node_id":"0.0-1.0","task_version":"prescreen-v0.3"},{"responses":{"Q19":"2","Q01":"3","Q02":"1","Q13":"1","Q06":"1","Q20":"0","Q11":"3","Q09":"1","Q12":"1","Q05":"2","Q21":"3","Q15":"2","Q17":"1","Q14":"1","Q07":"0","Q04":"2","Q08":"2","Q16":"2","Q18":"2","Q03":"1","Q10":"1"},"rt":438594.5,"item_order":[18,0,1,12,5,19,10,8,11,4,20,14,16,13,6,3,7,15,17,2,9],"radio_events":[75125.40000000037,148021.80000000028,180065.80000000028,199429.7000000002,206699.80000000028,209085.40000000037,214277,219818.1000000001,229496.7000000002,311885.7000000002,318555.1000000001,343999,349076.5,356470.4000000004,370769.8000000003,383789.6000000001,389664,396722.9000000004,406014.1000000001,409382.8000000003,437965.8000000003],"key_events":[],"mouse_events":[75125.40000000037,148021.80000000028,180065.80000000028,199429.7000000002,206699.80000000028,209085.40000000037,214277,219818.1000000001,229496.7000000002,268110.7000000002,272729.3000000003,273646.2000000002,293023.9000000004,311885.7000000002,318555.1000000001,343999,349076.5,356470.4000000004,370769.8000000003,383789.6000000001,389664,396722.9000000004,406014.1000000001,409382.8000000003,437965.8000000003,438588.4000000004],"straightlining":0.42857142857142855,"zigzagging":0.45,"honeypot":0,"survey":"sns","trial_type":"survey-template","trial_index":2,"time_elapsed":604330,"internal_node_id":"0.0-2.0","task_version":"prescreen-v0.3","browser_interactions":6,"infrequency":0},{"responses":{"Q01":"2","Q13":"0","Q11":"3","Q04":"3","Q08":"2","Q10":"2","Q06":"2","Q02":"2","Q12":"1","Q07":"2","Q05":"3","Q03":"2","Q09":"3"},"rt":83511.5,"item_order":[0,12,10,3,7,9,5,1,11,6,4,2,8],"radio_events":[4050.7999999998137,10064.399999999907,26957.899999999907,32793.60000000009,40977.39999999991,44451.299999999814,48124,53384.39999999991,67897.5,70869.3999999999,74358.6000000001,80326.19999999972,83121.1000000001],"key_events":[],"mouse_events":[4050.7999999998137,10064.399999999907,26957.899999999907,32793.60000000009,40977.39999999991,44451.299999999814,48124,53384.39999999991,67897.5,70869.3999999999,74358.6000000001,80326.19999999972,83121.1000000001,83507.69999999972],"straightlining":0.5384615384615384,"zigzagging":0.5833333333333334,"honeypot":0,"survey":"bisbas","trial_type":"survey-template","trial_index":3,"time_elapsed":687854,"internal_node_id":"0.0-3.0","task_version":"prescreen-v0.3","browser_interactions":0,"infrequency":0},{"responses":{"Q01":"2","Q02":"1","Q03":"3"},"rt":25527.30000000028,"radio_events":[10523.30000000028,16896.200000000186,25019.700000000186],"key_events":[],"mouse_events":[10523.30000000028,16896.200000000186,25019.700000000186,25525.5],"survey":"map","page":1,"trial_type":"survey-map","trial_index":4,"time_elapsed":713392,"internal_node_id":"0.0-4.0","task_version":"prescreen-v0.3","browser_interactions":0},{"responses":{"Q04":"3","Q05":"2","Q06":"2"},"rt":30184.100000000093,"radio_events":[12891.299999999814,18994.19999999972,20830.100000000093,21831.899999999907,29697.399999999907],"key_events":[],"mouse_events":[12891.299999999814,18994.19999999972,20830.100000000093,21831.899999999907,29697.399999999907,30182.600000000093],"survey":"map","page":2,"trial_type":"survey-map","trial_index":5,"time_elapsed":743583,"internal_node_id":"0.0-5.0","task_version":"prescreen-v0.3","browser_interactions":2},{"responses":{"Q07":"4","Q08":"0","Q09":"1"},"rt":14674.799999999814,"radio_events":[5906.100000000093,10682,14060.299999999814],"key_events":[],"mouse_events":[5906.100000000093,10682,14060.299999999814,14673.299999999814],"survey":"map","page":3,"trial_type":"survey-map","trial_index":6,"time_elapsed":758265,"internal_node_id":"0.0-6.0","task_version":"prescreen-v0.3","browser_interactions":0},{"responses":{"Q10":"1","Q11":"1","Q12":"2","Q13":"2","Q16":"0","Q14":"1","Q15":"1"},"rt":81120.20000000019,"radio_events":[6971.100000000093,13323.200000000186,19426,54929,61348.299999999814,74011.3999999999,79688.3999999999],"key_events":[],"mouse_events":[6971.100000000093,13323.200000000186,19426,54929,61348.299999999814,74011.3999999999,79688.3999999999,81117.20000000019],"survey":"map","page":4,"trial_type":"survey-map","trial_index":7,"time_elapsed":839394,"internal_node_id":"0.0-7.0","task_version":"prescreen-v0.3","browser_interactions":0,"infrequency":0},{"view_history":[{"page_index":0,"viewing_time":3036.3000000002794},{"page_index":1,"viewing_time":8977.399999999907}],"rt":12014.80000000028,"trial_type":"instructions","trial_index":8,"time_elapsed":851413,"internal_node_id":"0.0-8.0","task_version":"prescreen-v0.3"},{"responses":{"01":"Yes","01_ages_10":"10","01_ages_11":"11","01_ages_12":"12","01_ages_13":"13","02":"Yes","02_ages_10":"10","02_ages_11":"11","02_ages_12":"12","02_ages_13":"13","03":"No","04":"No","05":"Yes","05_ages_8":"8","06":"No"},"rt":68310.80000000028,"item_order":[0,1,2,3,4,5],"radio_events":[6785.800000000279,38380.39999999991,48393.10000000009,53903.5,59620.60000000009,67389.6000000001],"checkbox_events":[23947,24359,24994.30000000028,25478.600000000093,39687.89999999991,39892.700000000186,40160.5,41054.30000000028,61778.80000000028],"key_events":[],"mouse_events":[0.20000000018626451,6785.800000000279,23947,24359,24994.30000000028,25478.600000000093,38380.39999999991,39687.89999999991,39892.700000000186,40160.5,41054.30000000028,47514.80000000028,48393.10000000009,53903.5,59620.60000000009,61778.80000000028,67389.6000000001,68301.3999999999],"honeypot":0,"survey":"mace","page":1,"trial_type":"survey-mace","trial_index":9,"time_elapsed":919750,"internal_node_id":"0.0-9.0","task_version":"prescreen-v0.3","browser_interactions":0},{"responses":{"01":"Yes","01_ages_5":"5","01_ages_6":"6","01_ages_7":"7","01_ages_8":"8","01_ages_9":"9","01_ages_10":"10","01_ages_11":"11","01_ages_12":"12","02":"No","03":"Yes","03_ages_6":"6","03_ages_7":"7","03_ages_8":"8","03_ages_9":"9","03_ages_10":"10","03_ages_11":"11","03_ages_12":"12","04":"No","05":"Yes","05_ages_6":"6","05_ages_7":"7","05_ages_8":"8","05_ages_9":"9","05_ages_10":"10","05_ages_11":"11","05_ages_12":"12","06":"No","07":"No","08":"No"},"rt":79324.80000000028,"item_order":[0,1,2,3,4,5,6,7],"radio_events":[7552,33303.60000000009,35868.700000000186,48430,53603.200000000186,71414,73882.5,78507.20000000019],"checkbox_events":[13466.5,13762.100000000093,14109.200000000186,15099.5,15585,16269.700000000186,20132.700000000186,20438.400000000373,39872.30000000028,40178.700000000186,40494.5,40960.80000000028,42029.30000000028,42287.60000000009,43099.30000000028,43307.80000000028,55614.90000000037,55835.10000000009,56086.90000000037,56640.200000000186,56999,57564.700000000186,58021.10000000009,58799.80000000028,59582.40000000037,60029.5,60823.5,61230,67350.20000000019,67737.80000000028],"key_events":[],"mouse_events":[7552,13466.5,13762.100000000093,14109.200000000186,15099.5,15585,16269.700000000186,20132.700000000186,20438.400000000373,33303.60000000009,35868.700000000186,39872.30000000028,40178.700000000186,40494.5,40960.80000000028,42029.30000000028,42287.60000000009,43099.30000000028,43307.80000000028,48430,53603.200000000186,55614.90000000037,55835.10000000009,56086.90000000037,56640.200000000186,56999,57564.700000000186,58021.10000000009,58799.80000000028,59582.40000000037,60029.5,60823.5,61230,67350.20000000019,67737.80000000028,71414,73882.5,78507.20000000019,79311.90000000037],"honeypot":0,"survey":"mace","page":2,"trial_type":"survey-mace","trial_index":10,"time_elapsed":999093,"internal_node_id":"0.0-10.0","task_version":"prescreen-v0.3","browser_interactions":0},{"responses":{"01":"No","02":"No","03":"No","04":"No"},"rt":19681.100000000093,"item_order":[0,1,2,3],"radio_events":[5296.800000000279,10560.5,14107.700000000186,18791.700000000186],"checkbox_events":[],"key_events":[],"mouse_events":[5296.800000000279,10560.5,14107.700000000186,18791.700000000186,19675.399999999907],"honeypot":0,"survey":"mace","page":3,"trial_type":"survey-mace","trial_index":11,"time_elapsed":1018786,"internal_node_id":"0.0-11.0","task_version":"prescreen-v0.3","browser_interactions":0},{"responses":{"01":"No","02":"No"},"rt":7326.5,"item_order":[0,1],"radio_events":[3309.2000000001863,6769.5],"checkbox_events":[],"key_events":[],"mouse_events":[3309.2000000001863,6769.5,7322.600000000093],"honeypot":0,"survey":"mace","page":4,"trial_type":"survey-mace","trial_index":12,"time_elapsed":1026123,"internal_node_id":"0.0-12.0","task_version":"prescreen-v0.3","browser_interactions":0},{"responses":{"01":"No","02":"No","03":"No","04":"Yes","04_ages_11":"11","04_ages_12":"12","04_ages_13":"13","05":"No"},"rt":61823.30000000028,"item_order":[0,1,2,3,4],"radio_events":[27957.600000000093,28254.30000000028,36506.60000000009,44089.10000000009,58371.39999999991],"checkbox_events":[46688.200000000186,47517.89999999991,50748.30000000028,51025.30000000028,51343.700000000186],"key_events":[],"mouse_events":[27957.600000000093,28254.30000000028,36506.60000000009,44089.10000000009,46688.200000000186,47517.89999999991,50748.30000000028,51025.30000000028,51343.700000000186,58371.39999999991,61815.30000000028],"honeypot":0,"survey":"mace","page":5,"trial_type":"survey-mace","trial_index":13,"time_elapsed":1087957,"internal_node_id":"0.0-13.0","task_version":"prescreen-v0.3","browser_interactions":0},{"responses":{"01":"Yes","01_ages_8":"8","01_ages_9":"9","01_ages_10":"10","01_ages_11":"11","01_ages_12":"12","01_ages_13":"13","02":"Yes","02_ages_8":"8","02_ages_9":"9","02_ages_10":"10","02_ages_11":"11","02_ages_12":"12","02_ages_13":"13","03":"No","04":"No","05":"No"},"rt":53291.700000000186,"item_order":[0,1,2,3,4],"radio_events":[15285.600000000093,31992.700000000186,41393.60000000009,45358,48933.90000000037,52827.80000000028],"checkbox_events":[25532.700000000186,25819.5,26196.600000000093,26612.200000000186,26969,27334,33231.40000000037,33548.40000000037,33904.10000000009,34269.30000000028,34912.30000000028,35340.200000000186],"key_events":[],"mouse_events":[15285.600000000093,25532.700000000186,25819.5,26196.600000000093,26612.200000000186,26969,27334,31992.700000000186,33231.40000000037,33548.40000000037,33904.10000000009,34269.30000000028,34912.30000000028,35340.200000000186,41393.60000000009,45358,48933.90000000037,52827.80000000028,53284.60000000009],"honeypot":0,"survey":"mace","page":6,"trial_type":"survey-mace","trial_index":14,"time_elapsed":1141262,"internal_node_id":"0.0-14.0","task_version":"prescreen-v0.3","browser_interactions":0},{"responses":{"01":"No","02":"No","03":"No","04":"Yes","04_ages_10":"10","04_ages_11":"11","04_ages_12":"12","04_ages_13":"13","05":"No","06":"No","07":"No"},"rt":26147.30000000028,"item_order":[0,1,2,3,4,5,6],"radio_events":[2802.5,6896.100000000093,10392.5,16097.700000000186,20777.400000000373,23077.400000000373,25779.400000000373],"checkbox_events":[17525.600000000093,17780.900000000373,18087.200000000186,18396.30000000028],"key_events":[],"mouse_events":[2802.5,6896.100000000093,10392.5,16097.700000000186,17525.600000000093,17780.900000000373,18087.200000000186,18396.30000000028,20777.400000000373,23077.400000000373,25779.400000000373,26137.30000000028],"honeypot":0,"survey":"mace","page":7,"trial_type":"survey-mace","trial_index":15,"time_elapsed":1167425,"internal_node_id":"0.0-15.0","task_version":"prescreen-v0.3","browser_interactions":0},{"responses":{"01":"Yes","01_ages_1":"1","01_ages_2":"2","01_ages_3":"3","01_ages_4":"4","01_ages_5":"5","01_ages_6":"6","01_ages_7":"7","01_ages_8":"8","01_ages_9":"9","01_ages_10":"10","01_ages_11":"11","01_ages_12":"12","01_ages_13":"13","01_ages_14":"14","01_ages_15":"15","01_ages_16":"16","01_ages_17":"17","01_ages_18":"18","02":"Yes","02_ages_1":"1","02_ages_2":"2","02_ages_3":"3","02_ages_4":"4","02_ages_5":"5","02_ages_6":"6","02_ages_7":"7","02_ages_8":"8","02_ages_9":"9","02_ages_10":"10","02_ages_11":"11","02_ages_12":"12","02_ages_13":"13","02_ages_14":"14","02_ages_15":"15","03":"No","04":"Yes","04_ages_1":"1","04_ages_2":"2","04_ages_3":"3","04_ages_4":"4","04_ages_5":"5","04_ages_6":"6","04_ages_7":"7","04_ages_8":"8","04_ages_9":"9","04_ages_10":"10","04_ages_11":"11","04_ages_12":"12","04_ages_13":"13","04_ages_14":"14","04_ages_15":"15","04_ages_16":"16","04_ages_17":"17","04_ages_18":"18"},"rt":80315.70000000019,"item_order":[0,1,2,3],"radio_events":[18687.700000000186,49511.30000000028,65773.70000000019,70249.20000000019],"checkbox_events":[22702.5,22945.900000000373,23275.100000000093,23591.400000000373,23944.200000000186,24232.5,24562.600000000093,25290.900000000373,25817.600000000093,26233.200000000186,26563.400000000373,27637.400000000373,28001,28519.200000000186,28828.5,29244.900000000373,29773.30000000028,30129.80000000028,50665.700000000186,50884.90000000037,51185.60000000009,51464.30000000028,51779.700000000186,52471.60000000009,52848.60000000009,53257.40000000037,53591.10000000009,53909.30000000028,54254.5,54848.10000000009,55630.60000000009,57009.5,57433.200000000186,72747,73042,73378.6000000001,73843.80000000028,74280.5,75755.70000000019,76013.30000000028,76350.90000000037,76786.30000000028,77114.40000000037,77469.70000000019,77817.1000000001,78202.70000000019,78571.20000000019,78887.1000000001,79284.5,79599.6000000001,79908.20000000019],"key_events":[],"mouse_events":[18687.700000000186,22702.5,22945.900000000373,23275.100000000093,23591.400000000373,23944.200000000186,24232.5,24562.600000000093,25290.900000000373,25817.600000000093,26233.200000000186,26563.400000000373,27637.400000000373,28001,28519.200000000186,28828.5,29244.900000000373,29773.30000000028,30129.80000000028,49511.30000000028,50665.700000000186,50884.90000000037,51185.60000000009,51464.30000000028,51779.700000000186,52471.60000000009,52848.60000000009,53257.40000000037,53591.10000000009,53909.30000000028,54254.5,54848.10000000009,55630.60000000009,57009.5,57433.200000000186,65773.70000000019,70249.20000000019,72747,73042,73378.6000000001,73843.80000000028,74280.5,75755.70000000019,76013.30000000028,76350.90000000037,76786.30000000028,77114.40000000037,77469.70000000019,77817.1000000001,78202.70000000019,78571.20000000019,78887.1000000001,79284.5,79599.6000000001,79908.20000000019,80305.80000000028],"honeypot":0,"survey":"mace","page":8,"trial_type":"survey-mace","trial_index":16,"time_elapsed":1247757,"internal_node_id":"0.0-16.0","task_version":"prescreen-v0.3","browser_interactions":0},{"responses":{"01":"Yes","01_ages_1":"1","01_ages_2":"2","01_ages_3":"3","01_ages_4":"4","01_ages_5":"5","01_ages_6":"6","01_ages_7":"7","01_ages_8":"8","01_ages_9":"9","01_ages_10":"10","01_ages_11":"11","01_ages_12":"12","01_ages_13":"13","01_ages_14":"14","01_ages_15":"15","01_ages_16":"16","01_ages_17":"17","01_ages_18":"18","02":"No","03":"Yes","03_ages_1":"1","03_ages_2":"2","03_ages_3":"3","03_ages_4":"4","03_ages_5":"5","03_ages_6":"6","03_ages_7":"7","03_ages_8":"8","03_ages_9":"9","03_ages_10":"10","03_ages_11":"11","03_ages_12":"12","03_ages_13":"13","03_ages_14":"14","03_ages_15":"15","03_ages_16":"16","03_ages_17":"17","03_ages_18":"18","04":"Yes","04_ages_1":"1","04_ages_2":"2","04_ages_3":"3","04_ages_4":"4","04_ages_5":"5","04_ages_6":"6","04_ages_7":"7","04_ages_8":"8","04_ages_9":"9","04_ages_10":"10","04_ages_11":"11","04_ages_12":"12","04_ages_13":"13","04_ages_14":"14","04_ages_15":"15","04_ages_16":"16","04_ages_17":"17","04_ages_18":"18"},"rt":78825.5,"item_order":[0,1,2,3],"radio_events":[10452,21451.19999999972,46873.19999999972,63288.19999999972,69887.5],"checkbox_events":[26594.600000000093,26782.100000000093,27010,27256.600000000093,27759.600000000093,28038.100000000093,28568.100000000093,28825.69999999972,29351.5,29729.5,30217.100000000093,30614.600000000093,30912.299999999814,31968,32254.799999999814,32533.100000000093,32790,33018.69999999972,48794.69999999972,49050.89999999991,49307.5,49574.5,49861.39999999991,50179.69999999972,50751.5,51012.60000000009,51673.60000000009,52291.89999999991,52511.89999999991,52746.10000000009,52994.60000000009,53284,53489,53718.5,53953.69999999972,54191.89999999991,70780.29999999981,71039.19999999972,71314.19999999972,71967.19999999972,72591.69999999972,72918.6000000001,73405.8999999999,73761,74148.1000000001,74543.6000000001,74919.8999999999,75415,75881.19999999972,76327.69999999972,76664.1000000001,76990.79999999981,77367.19999999972,77744.79999999981],"key_events":[],"mouse_events":[10452,21451.19999999972,26594.600000000093,26782.100000000093,27010,27256.600000000093,27759.600000000093,28038.100000000093,28568.100000000093,28825.69999999972,29351.5,29729.5,30217.100000000093,30614.600000000093,30912.299999999814,31968,32254.799999999814,32533.100000000093,32790,33018.69999999972,46873.19999999972,48794.69999999972,49050.89999999991,49307.5,49574.5,49861.39999999991,50179.69999999972,50751.5,51012.60000000009,51673.60000000009,52291.89999999991,52511.89999999991,52746.10000000009,52994.60000000009,53284,53489,53718.5,53953.69999999972,54191.89999999991,63288.19999999972,69887.5,70780.29999999981,71039.19999999972,71314.19999999972,71967.19999999972,72591.69999999972,72918.6000000001,73405.8999999999,73761,74148.1000000001,74543.6000000001,74919.8999999999,75415,75881.19999999972,76327.69999999972,76664.1000000001,76990.79999999981,77367.19999999972,77744.79999999981,78816.79999999981],"honeypot":0,"survey":"mace","page":9,"trial_type":"survey-mace","trial_index":17,"time_elapsed":1326597,"internal_node_id":"0.0-17.0","task_version":"prescreen-v0.3","browser_interactions":0},{"responses":{"01":"No","02":"No","03":"No","04":"No","05":"No","06":"Yes","06_ages_17":"17","07":"Yes","07_ages_1":"1","07_ages_2":"2","07_ages_3":"3","07_ages_4":"4","07_ages_5":"5","07_ages_6":"6","07_ages_7":"7","07_ages_8":"8","07_ages_9":"9","07_ages_10":"10","07_ages_11":"11","07_ages_12":"12","07_ages_13":"13","07_ages_14":"14","07_ages_15":"15","07_ages_16":"16","07_ages_17":"17","07_ages_18":"18","08":"No"},"rt":59509.200000000186,"item_order":[0,1,2,3,4,5,6,7],"radio_events":[6703.600000000093,8556.200000000186,11746.200000000186,14856.100000000093,20893.30000000028,25815.30000000028,35546.39999999991,52228,58561.60000000009],"checkbox_events":[26885.80000000028,36966,37235.700000000186,37441,38364.10000000009,38686.10000000009,39166.200000000186,39662.700000000186,40108.200000000186,40566.30000000028,41615.60000000009,41931.39999999991,42337,42881.80000000028,43389.30000000028,43783.700000000186,44209.80000000028,44686,45051.30000000028,45537.30000000028,45857.5],"key_events":[],"mouse_events":[6703.600000000093,8556.200000000186,11746.200000000186,14856.100000000093,20893.30000000028,25815.30000000028,26885.80000000028,35546.39999999991,36966,37235.700000000186,37441,37822.39999999991,38364.10000000009,38686.10000000009,39166.200000000186,39662.700000000186,40108.200000000186,40566.30000000028,40994.700000000186,41615.60000000009,41931.39999999991,42337,42881.80000000028,43389.30000000028,43783.700000000186,44209.80000000028,44686,45051.30000000028,45537.30000000028,45857.5,52228,58561.60000000009,59495.700000000186],"honeypot":0,"survey":"mace","page":10,"trial_type":"survey-mace","trial_index":18,"time_elapsed":1386126,"internal_node_id":"0.0-18.0","task_version":"prescreen-v0.3","browser_interactions":0,"instructed":0},{"rt":14428.100000000093,"trial_type":"mental-health-alert","trial_index":19,"time_elapsed":1400562,"internal_node_id":"0.0-19.0","task_version":"prescreen-v0.3","interactions":"[{\"event\":\"blur\",\"trial\":1,\"time\":146492},{\"event\":\"focus\",\"trial\":1,\"time\":156799},{\"event\":\"blur\",\"trial\":2,\"time\":431070},{\"event\":\"focus\",\"trial\":2,\"time\":433783},{\"event\":\"blur\",\"trial\":2,\"time\":443477},{\"event\":\"focus\",\"trial\":2,\"time\":458712},{\"event\":\"blur\",\"trial\":2,\"time\":459617},{\"event\":\"focus\",\"trial\":2,\"time\":473608},{\"event\":\"blur\",\"trial\":5,\"time\":717056},{\"event\":\"focus\",\"trial\":5,\"time\":726243}]"}]