[{"view_history":[{"page_index":0,"viewing_time":2901.4000000059605},{"page_index":1,"viewing_time":1660.5},{"page_index":2,"viewing_time":1906.699999988079},{"page_index":3,"viewing_time":1079.6000000089407}],"rt":7549.20000000298,"trial_type":"instructions","trial_index":0,"time_elapsed":7576,"internal_node_id":"0.0-0.0","task_version":"prescreen-v0.3"},{"rt":8267.29999999702,"responses":{"age":"39","gender-categorical":"Male","gender-free-response":"","ethnicity":"Not Hispanic or Latino","race":["White"],"education":"High school"},"trial_type":"survey-demo","trial_index":1,"time_elapsed":15856,"internal_node_id":"0.0-1.0","task_version":"prescreen-v0.3"},{"responses":{"Q05":"1","Q09":"2","Q04":"2","Q17":"2","Q06":"1","Q07":"1","Q08":"2","Q19":"1","Q03":"1","Q12":"2","Q14":"2","Q20":"0","Q16":"2","Q11":"2","Q15":"2","Q01":"2","Q21":"3","Q10":"2","Q18":"1","Q02":"2","Q13":"1"},"rt":76869,"item_order":[4,8,3,16,5,6,7,18,2,11,13,19,15,10,14,0,20,9,17,1,12],"radio_events":[10164.90000000596,13161.90000000596,15756.40000000596,18214.79999999702,23020.70000000298,27156.5,30711,35781.10000000894,37910.79999999702,41720.40000000596,46229,48786.90000000596,53708.40000000596,55730.70000000298,60038.5,61648,64688.60000000894,67441.5,71872.60000000894,73520.70000000298,76212.60000000894],"key_events":[],"mouse_events":[10164.90000000596,13161.90000000596,15756.40000000596,18214.79999999702,23020.70000000298,27156.5,30711,35781.10000000894,37910.79999999702,41720.40000000596,46229,48786.90000000596,53708.40000000596,55730.70000000298,60038.5,61648,63942.90000000596,64688.60000000894,67441.5,71872.60000000894,73520.70000000298,76212.60000000894,76865.90000000596],"straightlining":0.5714285714285714,"zigzagging":0.5,"honeypot":0,"survey":"sns","trial_type":"survey-template","trial_index":2,"time_elapsed":92754,"internal_node_id":"0.0-2.0","task_version":"prescreen-v0.3","browser_interactions":0,"infrequency":0},{"responses":{"Q08":"2","Q09":"2","Q04":"3","Q11":"2","Q07":"2","Q13":"0","Q06":"3","Q02":"2","Q12":"3","Q10":"3","Q05":"3","Q01":"3","Q03":"3"},"rt":38070.09999999404,"item_order":[7,8,3,10,6,12,5,1,11,9,4,0,2],"radio_events":[3328.4000000059605,6198.0999999940395,8748.09999999404,9424.20000000298,12154.40000000596,13330,15956.29999999702,19223.40000000596,20179.29999999702,22736.40000000596,27190.29999999702,29188.20000000298,31342.20000000298,34142.5,37632.09999999404],"key_events":[],"mouse_events":[3328.4000000059605,6198.0999999940395,8748.09999999404,9424.20000000298,12154.40000000596,13330,15956.29999999702,19223.40000000596,20179.29999999702,22736.40000000596,27190.29999999702,29188.20000000298,31342.20000000298,34142.5,37632.09999999404,38068.40000000596],"straightlining":0.5384615384615384,"zigzagging":0.4166666666666667,"honeypot":0,"survey":"bisbas","trial_type":"survey-template","trial_index":3,"time_elapsed":130837,"internal_node_id":"0.0-3.0","task_version":"prescreen-v0.3","browser_interactions":0,"infrequency":0},{"responses":{"Q01":"1","Q02":"1","Q03":"1"},"rt":11315.5,"radio_events":[5220.9000000059605,7714.9000000059605,10700.70000000298],"key_events":[],"mouse_events":[5220.9000000059605,7714.9000000059605,10700.70000000298,11314.79999999702],"survey":"map","page":1,"trial_type":"survey-map","trial_index":4,"time_elapsed":142161,"internal_node_id":"0.0-4.0","task_version":"prescreen-v0.3","browser_interactions":0},{"responses":{"Q04":"2","Q05":"2","Q06":"2"},"rt":10339.10000000894,"radio_events":[4306,7484.20000000298,9677.90000000596],"key_events":[],"mouse_events":[4306,5658.29999999702,7484.20000000298,9677.90000000596,10338.40000000596],"survey":"map","page":2,"trial_type":"survey-map","trial_index":5,"time_elapsed":152509,"internal_node_id":"0.0-5.0","task_version":"prescreen-v0.3","browser_interactions":0},{"responses":{"Q07":"2","Q08":"2","Q09":"2"},"rt":8451,"radio_events":[3700,5822.0999999940395,7784],"key_events":[],"mouse_events":[3700,5822.0999999940395,7784,8450.29999999702],"survey":"map","page":3,"trial_type":"survey-map","trial_index":6,"time_elapsed":160971,"internal_node_id":"0.0-6.0","task_version":"prescreen-v0.3","browser_interactions":0},{"responses":{"Q10":"1","Q11":"1","Q12":"1","Q13":"3","Q16":"0","Q14":"1","Q15":"1"},"rt":27527.39999999106,"radio_events":[5300,7732.29999999702,10654.5,14052.59999999404,15124.699999988079,18226.5,23062.5,26856.39999999106],"key_events":[],"mouse_events":[4227.5,5300,7732.29999999702,10654.5,14052.59999999404,15124.699999988079,18226.5,21842,23062.5,26856.39999999106,27525.59999999404],"survey":"map","page":4,"trial_type":"survey-map","trial_index":7,"time_elapsed":188507,"internal_node_id":"0.0-7.0","task_version":"prescreen-v0.3","browser_interactions":0,"infrequency":0},{"view_history":[{"page_index":0,"viewing_time":1816.699999988079},{"page_index":1,"viewing_time":4160.100000008941}],"rt":5978,"trial_type":"instructions","trial_index":8,"time_elapsed":194491,"internal_node_id":"0.0-8.0","task_version":"prescreen-v0.3"},{"responses":{"01":"No","02":"No","03":"Yes","03_ages_6":"6","03_ages_7":"7","03_ages_8":"8","03_ages_9":"9","03_ages_10":"10","03_ages_11":"11","03_ages_12":"12","03_ages_13":"13","03_ages_14":"14","03_ages_15":"15","03_ages_16":"16","04":"No","05":"No","06":"Yes","06_ages_5":"5","06_ages_6":"6","06_ages_7":"7","06_ages_8":"8","06_ages_9":"9","06_ages_10":"10","06_ages_11":"11","06_ages_12":"12","06_ages_13":"13","06_ages_14":"14"},"rt":53565.89999999106,"item_order":[0,1,2,3,4,5],"radio_events":[8673.5,14024,15695.29999999702,27830.09999999404,36388.5,40445.89999999106],"checkbox_events":[19084.79999999702,19454.19999998808,19845.59999999404,20258.29999999702,20655.29999999702,21309.59999999404,21642.39999999106,22107.89999999106,22560,23764.09999999404,24231.09999999404,42211.19999998808,42609.19999998808,42950.69999998808,43470.19999998808,43837.5,44178.79999999702,44505.39999999106,44861.69999998808,45203.39999999106,45538.19999998808,51974.09999999404,53102.89999999106],"key_events":[],"mouse_events":[0.3999999910593033,8092,8673.5,14024,15695.29999999702,19084.79999999702,19454.19999998808,19845.59999999404,20258.29999999702,20655.29999999702,21309.59999999404,21642.39999999106,22107.89999999106,22560,23764.09999999404,24231.09999999404,27830.09999999404,36388.5,40445.89999999106,42211.19999998808,42609.19999998808,42950.69999998808,43470.19999998808,43837.5,44178.79999999702,44505.39999999106,44861.69999998808,45203.39999999106,45538.19999998808,51974.09999999404,53102.89999999106,53561.79999999702],"honeypot":0,"survey":"mace","page":1,"trial_type":"survey-mace","trial_index":9,"time_elapsed":248094,"internal_node_id":"0.0-9.0","task_version":"prescreen-v0.3","browser_interactions":0},{"responses":{"01":"No","02":"No","03":"Yes","03_ages_5":"5","03_ages_6":"6","03_ages_7":"7","03_ages_8":"8","03_ages_9":"9","03_ages_10":"10","03_ages_11":"11","04":"No","05":"Yes","05_ages_5":"5","05_ages_6":"6","05_ages_7":"7","05_ages_8":"8","05_ages_9":"9","05_ages_10":"10","06":"No","07":"No","08":"No"},"rt":29895,"item_order":[0,1,2,3,4,5,6,7],"radio_events":[2482.699999988079,5772.29999999702,7311.699999988079,17107.69999998808,18986.09999999404,26542.19999998808,27769.89999999106,29308.09999999404],"checkbox_events":[9814.29999999702,10185.79999999702,11042.59999999404,12005.5,12533.59999999404,13118.29999999702,13522.39999999106,20642.59999999404,21001.59999999404,21947.79999999702,22327.69999998808,22871.29999999702,24846.09999999404],"key_events":[],"mouse_events":[2482.699999988079,5772.29999999702,7311.699999988079,9814.29999999702,10185.79999999702,10528,11042.59999999404,11417.79999999702,12005.5,12533.59999999404,13118.29999999702,13522.39999999106,17107.69999998808,18986.09999999404,20642.59999999404,21001.59999999404,21404.59999999404,21947.79999999702,22327.69999998808,22871.29999999702,24846.09999999404,26542.19999998808,27769.89999999106,29308.09999999404,29889.89999999106],"honeypot":0,"survey":"mace","page":2,"trial_type":"survey-mace","trial_index":10,"time_elapsed":277999,"internal_node_id":"0.0-10.0","task_version":"prescreen-v0.3","browser_interactions":0},{"responses":{"01":"No","02":"No","03":"No","04":"No"},"rt":10378.90000000596,"item_order":[0,1,2,3],"radio_events":[4534.9000000059605,7918.5,9026.90000000596,9928.70000000298],"checkbox_events":[],"key_events":[],"mouse_events":[4534.9000000059605,7918.5,9026.90000000596,9928.70000000298,10376.10000000894],"honeypot":0,"survey":"mace","page":3,"trial_type":"survey-mace","trial_index":11,"time_elapsed":288385,"internal_node_id":"0.0-11.0","task_version":"prescreen-v0.3","browser_interactions":0},{"responses":{"01":"No","02":"No"},"rt":3944,"item_order":[0,1],"radio_events":[2138.7000000029802,3507.2000000029802],"checkbox_events":[],"key_events":[],"mouse_events":[2138.7000000029802,3507.2000000029802,3942.5],"honeypot":0,"survey":"mace","page":4,"trial_type":"survey-mace","trial_index":12,"time_elapsed":292336,"internal_node_id":"0.0-12.0","task_version":"prescreen-v0.3","browser_interactions":0},{"responses":{"01":"No","02":"No","03":"No","04":"No","05":"No"},"rt":14723.79999999702,"item_order":[0,1,2,3,4],"radio_events":[5518.29999999702,7762.5,9978.40000000596,12076.40000000596,13918.59999999404],"checkbox_events":[],"key_events":[],"mouse_events":[5518.29999999702,7762.5,9978.40000000596,12076.40000000596,13918.59999999404,14720.40000000596],"honeypot":0,"survey":"mace","page":5,"trial_type":"survey-mace","trial_index":13,"time_elapsed":307070,"internal_node_id":"0.0-13.0","task_version":"prescreen-v0.3","browser_interactions":0},{"responses":{"01":"Yes","01_ages_11":"11","01_ages_12":"12","01_ages_13":"13","01_ages_14":"14","01_ages_15":"15","01_ages_16":"16","01_ages_17":"17","02":"Yes","02_ages_11":"11","02_ages_12":"12","02_ages_13":"13","02_ages_14":"14","02_ages_15":"15","02_ages_16":"16","02_ages_17":"17","02_ages_18":"18","03":"Yes","03_ages_13":"13","03_ages_14":"14","03_ages_15":"15","03_ages_16":"16","03_ages_17":"17","03_ages_18":"18","04":"Yes","04_ages_13":"13","04_ages_14":"14","04_ages_15":"15","04_ages_16":"16","04_ages_17":"17","04_ages_18":"18","05":"Yes","05_ages_13":"13","05_ages_14":"14","05_ages_15":"15","05_ages_16":"16","05_ages_17":"17"},"rt":54934.59999999404,"item_order":[0,1,2,3,4],"radio_events":[3149.199999988079,15159.59999999404,15997.199999988079,23381.29999999702,31247.19999998808,49235.09999999404],"checkbox_events":[8098.5999999940395,8543.199999988079,9607.39999999106,10075.199999988079,10501.39999999106,11300.79999999702,14060.79999999702,17986.89999999106,18468.69999998808,19191.29999999702,19727.59999999404,20123.59999999404,20552.19999998808,21382.79999999702,26661.79999999702,27259.29999999702,27672.89999999106,28332.39999999106,28798.09999999404,33880.69999998808,34300.69999998808,34923.69999998808,35351.89999999106,35809.39999999106,38536.79999999702,40902.59999999404,43450.79999999702,51130.69999998808,51518.79999999702,52001.89999999106,52406.39999999106,53649.79999999702],"key_events":[],"mouse_events":[3149.199999988079,8098.5999999940395,8543.199999988079,8963.59999999404,9607.39999999106,10075.199999988079,10501.39999999106,11300.79999999702,14060.79999999702,15159.59999999404,15997.199999988079,17986.89999999106,18468.69999998808,19191.29999999702,19727.59999999404,20123.59999999404,20552.19999998808,21382.79999999702,23381.29999999702,26661.79999999702,27259.29999999702,27672.89999999106,28332.39999999106,28798.09999999404,31247.19999998808,33880.69999998808,34300.69999998808,34923.69999998808,35351.89999999106,35809.39999999106,38536.79999999702,40902.59999999404,43450.79999999702,49235.09999999404,51130.69999998808,51518.79999999702,52001.89999999106,52406.39999999106,52827,53649.79999999702,54931.29999999702],"honeypot":0,"survey":"mace","page":6,"trial_type":"survey-mace","trial_index":14,"time_elapsed":362014,"internal_node_id":"0.0-14.0","task_version":"prescreen-v0.3","browser_interactions":0},{"responses":{"01":"Yes","01_ages_13":"13","01_ages_14":"14","01_ages_15":"15","01_ages_16":"16","01_ages_17":"17","02":"Yes","02_ages_10":"10","02_ages_11":"11","02_ages_12":"12","02_ages_13":"13","02_ages_14":"14","03":"Yes","03_ages_10":"10","03_ages_11":"11","03_ages_12":"12","03_ages_13":"13","03_ages_14":"14","03_ages_15":"15","03_ages_16":"16","04":"No","05":"No","06":"No","07":"No"},"rt":35645.79999999702,"item_order":[0,1,2,3,4,5,6],"radio_events":[5014.399999991059,11419.79999999702,17505.89999999106,26871.5,28977,30386.70000000298,34825.89999999106],"checkbox_events":[6429.79999999702,6809.899999991059,7198.20000000298,7580.79999999702,10299.89999999106,12219.29999999702,12610.70000000298,13036.29999999702,14194.5,14667.09999999404,19735.29999999702,20109.29999999702,20522.89999999106,20925.70000000298,21415.70000000298,21842,22302.79999999702,22969.20000000298,24321.09999999404],"key_events":[],"mouse_events":[5014.399999991059,6429.79999999702,6809.899999991059,7198.20000000298,7580.79999999702,10299.89999999106,11419.79999999702,12219.29999999702,12610.70000000298,13036.29999999702,13440.20000000298,14194.5,14667.09999999404,17505.89999999106,19735.29999999702,20109.29999999702,20522.89999999106,20925.70000000298,21415.70000000298,21842,22302.79999999702,22969.20000000298,24321.09999999404,26871.5,28977,30386.70000000298,34825.89999999106,35641.20000000298],"honeypot":0,"survey":"mace","page":7,"trial_type":"survey-mace","trial_index":15,"time_elapsed":397674,"internal_node_id":"0.0-15.0","task_version":"prescreen-v0.3","browser_interactions":0},{"responses":{"01":"No","02":"No","03":"Yes","03_ages_11":"11","03_ages_12":"12","03_ages_13":"13","03_ages_14":"14","04":"No"},"rt":41950.89999999106,"item_order":[0,1,2,3],"radio_events":[12563.79999999702,22117.5,24723.59999999404,41265.89999999106],"checkbox_events":[27769.5,28159.29999999702,28539.59999999404,29519.29999999702,29915.89999999106,30646.79999999702,30988,32053.39999999106,33989.39999999106,34555.5,35659.59999999404,37533.39999999106],"key_events":[],"mouse_events":[12563.79999999702,22117.5,24723.59999999404,27769.5,28159.29999999702,28539.59999999404,28936.09999999404,29519.29999999702,29915.89999999106,30646.79999999702,30988,31541.19999998808,32053.39999999106,33989.39999999106,34555.5,35659.59999999404,36786.89999999106,37533.39999999106,41265.89999999106,41949],"honeypot":0,"survey":"mace","page":8,"trial_type":"survey-mace","trial_index":16,"time_elapsed":439633,"internal_node_id":"0.0-16.0","task_version":"prescreen-v0.3","browser_interactions":0},{"responses":{"01":"Yes","01_ages_1":"1","01_ages_2":"2","01_ages_3":"3","01_ages_4":"4","01_ages_5":"5","01_ages_6":"6","01_ages_7":"7","01_ages_8":"8","01_ages_9":"9","01_ages_10":"10","01_ages_11":"11","01_ages_12":"12","01_ages_13":"13","01_ages_14":"14","01_ages_15":"15","01_ages_16":"16","01_ages_17":"17","01_ages_18":"18","02":"Yes","02_ages_1":"1","02_ages_2":"2","02_ages_3":"3","02_ages_4":"4","02_ages_5":"5","02_ages_6":"6","02_ages_7":"7","02_ages_8":"8","02_ages_9":"9","02_ages_10":"10","02_ages_11":"11","02_ages_12":"12","02_ages_13":"13","02_ages_14":"14","02_ages_15":"15","02_ages_16":"16","02_ages_17":"17","02_ages_18":"18","03":"Yes","03_ages_1":"1","03_ages_2":"2","03_ages_3":"3","03_ages_4":"4","03_ages_5":"5","03_ages_6":"6","03_ages_7":"7","03_ages_8":"8","03_ages_9":"9","03_ages_10":"10","03_ages_11":"11","03_ages_12":"12","03_ages_13":"13","03_ages_14":"14","03_ages_15":"15","03_ages_16":"16","03_ages_17":"17","03_ages_18":"18","04":"Yes","04_ages_1":"1","04_ages_2":"2","04_ages_3":"3","04_ages_4":"4","04_ages_5":"5","04_ages_6":"6","04_ages_7":"7","04_ages_8":"8","04_ages_9":"9","04_ages_10":"10","04_ages_11":"11","04_ages_12":"12","04_ages_13":"13","04_ages_14":"14","04_ages_15":"15","04_ages_16":"16","04_ages_17":"17","04_ages_18":"18"},"rt":54353.39999999106,"item_order":[0,1,2,3],"radio_events":[2844.5,17965.70000000298,31063.39999999106,44200.09999999404],"checkbox_events":[5753.0999999940395,6671.5,7805.899999991059,8389.79999999702,9047.89999999106,9576.29999999702,10052.20000000298,10527,11008.59999999404,11435.5,11978.70000000298,12593.79999999702,13021.59999999404,13642.29999999702,14056.09999999404,14475.5,15002.29999999702,15546.5,19017,19566.20000000298,20063.79999999702,20499.5,21478.09999999404,22101.5,22699.09999999404,23189.29999999702,23726.09999999404,24160.39999999106,24665.39999999106,25389.70000000298,25971.5,26368.39999999106,26983.79999999702,27402.29999999702,27844.39999999106,28490.29999999702,32120.20000000298,33311.70000000298,33830.29999999702,34313,34818.09999999404,35295.09999999404,35730.29999999702,36155,36636.59999999404,37492.20000000298,38162,38696.59999999404,39179.39999999106,39740.39999999106,40204.09999999404,40640.39999999106,41085.29999999702,41526.5,45414.5,45864.79999999702,46384.09999999404,47030.20000000298,47655.5,48081,48687.59999999404,49092.09999999404,49527.39999999106,50232.20000000298,50692,51189.29999999702,51624.70000000298,52012.89999999106,52472.59999999404,52885.09999999404,53318.09999999404,53754.20000000298],"key_events":[],"mouse_events":[2844.5,5435.5,5753.0999999940395,6210.29999999702,6671.5,7805.899999991059,8389.79999999702,9047.89999999106,9576.29999999702,10052.20000000298,10527,11008.59999999404,11435.5,11978.70000000298,12593.79999999702,13021.59999999404,13642.29999999702,14056.09999999404,14475.5,15002.29999999702,15546.5,17965.70000000298,19017,19566.20000000298,20063.79999999702,20499.5,21075.70000000298,21478.09999999404,22101.5,22699.09999999404,23189.29999999702,23726.09999999404,24160.39999999106,24665.39999999106,25389.70000000298,25971.5,26368.39999999106,26983.79999999702,27402.29999999702,27844.39999999106,28490.29999999702,30052,31063.39999999106,32120.20000000298,32618.20000000298,33311.70000000298,33830.29999999702,34313,34818.09999999404,35295.09999999404,35730.29999999702,36155,36636.59999999404,37492.20000000298,38162,38696.59999999404,39179.39999999106,39740.39999999106,40204.09999999404,40640.39999999106,41085.29999999702,41526.5,44200.09999999404,45414.5,45864.79999999702,46384.09999999404,47030.20000000298,47655.5,48081,48687.59999999404,49092.09999999404,49527.39999999106,50232.20000000298,50692,51189.29999999702,51624.70000000298,52012.89999999106,52472.59999999404,52885.09999999404,53318.09999999404,53754.20000000298,54351.70000000298],"honeypot":0,"survey":"mace","page":9,"trial_type":"survey-mace","trial_index":17,"time_elapsed":493993,"internal_node_id":"0.0-17.0","task_version":"prescreen-v0.3","browser_interactions":0},{"responses":{"01":"No","02":"No","03":"Yes","03_ages_13":"13","03_ages_14":"14","03_ages_15":"15","03_ages_16":"16","04":"Yes","04_ages_13":"13","04_ages_14":"14","04_ages_15":"15","04_ages_16":"16","05":"No","06":"Yes","06_ages_17":"17","07":"Yes","07_ages_1":"1","07_ages_2":"2","07_ages_3":"3","07_ages_4":"4","07_ages_5":"5","07_ages_6":"6","07_ages_7":"7","07_ages_8":"8","07_ages_9":"9","07_ages_10":"10","07_ages_11":"11","07_ages_12":"12","07_ages_13":"13","07_ages_14":"14","07_ages_15":"15","07_ages_16":"16","07_ages_17":"17","07_ages_18":"18","08":"Yes","08_ages_1":"1","08_ages_2":"2","08_ages_3":"3","08_ages_4":"4","08_ages_5":"5","08_ages_6":"6","08_ages_7":"7","08_ages_8":"8","08_ages_9":"9","08_ages_10":"10","08_ages_11":"11","08_ages_12":"12","08_ages_13":"13","08_ages_14":"14","08_ages_15":"15","08_ages_16":"16","08_ages_17":"17","08_ages_18":"18"},"rt":52061.60000000894,"item_order":[0,1,2,3,4,5,6,7],"radio_events":[3126.5,4305.70000000298,8061.600000008941,15891.60000000894,22961.90000000596,25272.10000000894,29305.90000000596,41524.20000000298],"checkbox_events":[9871.70000000298,11327.10000000894,11722.5,15034,17273.79999999702,17707.5,18175.40000000596,18617.79999999702,26591.60000000894,31980.70000000298,32391.60000000894,32850,33377.60000000894,33852.70000000298,34404,34840.20000000298,35282.60000000894,35787.90000000596,36253.79999999702,36689.79999999702,37155.90000000596,37801.90000000596,38205.90000000596,38625.79999999702,39109.20000000298,39558.70000000298,40031.70000000298,42977.5,43467.70000000298,43917.70000000298,44315.79999999702,44711.79999999702,45123.60000000894,46009.60000000894,46428.10000000894,46856.20000000298,47252.60000000894,47734.5,48387.5,49041.10000000894,49499.60000000894,50131.20000000298,50704.29999999702,51161.70000000298,51597.5],"key_events":[],"mouse_events":[3126.5,4305.70000000298,8061.600000008941,9871.70000000298,10269.40000000596,10960.70000000298,11327.10000000894,11722.5,15034,15891.60000000894,17273.79999999702,17707.5,18175.40000000596,18617.79999999702,22961.90000000596,25272.10000000894,26591.60000000894,29305.90000000596,31063.40000000596,31980.70000000298,32391.60000000894,32850,33377.60000000894,33852.70000000298,34404,34840.20000000298,35282.60000000894,35787.90000000596,36253.79999999702,36689.79999999702,37155.90000000596,37801.90000000596,38205.90000000596,38625.79999999702,39109.20000000298,39558.70000000298,40031.70000000298,41524.20000000298,42977.5,43467.70000000298,43917.70000000298,44315.79999999702,44711.79999999702,45123.60000000894,45629.90000000596,46009.60000000894,46428.10000000894,46856.20000000298,47252.60000000894,47734.5,48387.5,49041.10000000894,49499.60000000894,50131.20000000298,50704.29999999702,51161.70000000298,51597.5,52056.20000000298],"honeypot":0,"survey":"mace","page":10,"trial_type":"survey-mace","trial_index":18,"time_elapsed":546063,"internal_node_id":"0.0-18.0","task_version":"prescreen-v0.3","browser_interactions":0,"instructed":0},{"rt":4999.5999999940395,"trial_type":"mental-health-alert","trial_index":19,"time_elapsed":551069,"internal_node_id":"0.0-19.0","task_version":"prescreen-v0.3","interactions":"[]"}]