[{"view_history":[{"page_index":0,"viewing_time":3604.699999996228},{"page_index":1,"viewing_time":2541.6600000025937},{"page_index":2,"viewing_time":3559.0700000029756},{"page_index":3,"viewing_time":1188.9699999883305}],"rt":10895.334999993793,"trial_type":"instructions","trial_index":0,"time_elapsed":10910,"internal_node_id":"0.0-0.0","task_version":"prescreen-v0.3"},{"rt":14398.279999993974,"responses":{"age":"34","gender-categorical":"Male","gender-free-response":"","ethnicity":"Not Hispanic or Latino","race":["Asian"],"education":"Master degree or higher"},"trial_type":"survey-demo","trial_index":1,"time_elapsed":25315,"internal_node_id":"0.0-1.0","task_version":"prescreen-v0.3"},{"responses":{"Q06":"1","Q04":"2","Q02":"2","Q20":"1","Q12":"2","Q05":"3","Q16":"2","Q09":"3","Q18":"2","Q11":"3","Q17":"3","Q19":"2","Q07":"1","Q10":"2","Q01":"2","Q13":"2","Q21":"3","Q14":"2","Q08":"2","Q03":"1","Q15":"2"},"rt":118131.97999999102,"item_order":[5,3,1,19,11,4,15,8,17,10,16,18,6,9,0,12,20,13,7,2,14],"radio_events":[15738.564999992377,20978.64999999001,22893.209999994724,26479.454999993322,35942.379999993136,41043.42999999062,46534.92999999435,53757.11999999476,61412.58999999263,63144.99999998952,65498.75999998767,74174.47499999253,80881.0999999987,84285.01999999571,88237.88000000059,91211.11499999824,92683.56499999936,100200.01000000047,105386.3699999929,107406.35499999917,110466.03499999037,117588.13499999815],"key_events":[],"mouse_events":[15738.564999992377,20978.64999999001,22893.209999994724,26479.454999993322,35942.379999993136,41043.42999999062,46534.92999999435,53757.11999999476,61412.58999999263,63144.99999998952,65498.75999998767,74174.47499999253,80881.0999999987,84285.01999999571,86018.14999998896,88237.88000000059,91211.11499999824,92683.56499999936,99014.66999998956,100200.01000000047,105386.3699999929,107406.35499999917,110466.03499999037,116191.91499998851,117588.13499999815,118130.61999999627],"straightlining":0.5714285714285714,"zigzagging":0.75,"honeypot":0,"survey":"sns","trial_type":"survey-template","trial_index":2,"time_elapsed":143453,"internal_node_id":"0.0-2.0","task_version":"prescreen-v0.3","browser_interactions":2,"infrequency":0},{"responses":{"Q10":"1","Q12":"1","Q02":"1","Q05":"2","Q03":"2","Q09":"1","Q08":"2","Q01":"2","Q07":"2","Q06":"2","Q04":"2","Q13":"0","Q11":"1"},"rt":64245.46000000555,"item_order":[9,11,1,4,2,8,7,0,6,5,3,12,10],"radio_events":[5145.655000000261,10575.20000000659,13677.6899999968,15599.74499999953,21107.984999995097,25523.824999996577,33309.85999999393,35742.00500000734,42121.845000001485,46547.29000000225,47414.944999996806,56998.76499999664,62820.94000000507],"key_events":[],"mouse_events":[5145.655000000261,10575.20000000659,13677.6899999968,15599.74499999953,21107.984999995097,25523.824999996577,28794.04500000237,31714.905000000726,33003.584999998566,33309.85999999393,33873.04999999469,35742.00500000734,38336.939999993774,42121.845000001485,46547.29000000225,47414.944999996806,56998.76499999664,58030.845000001136,62820.94000000507,64244.04000000504],"straightlining":0.5384615384615384,"zigzagging":0.3333333333333333,"honeypot":0,"survey":"bisbas","trial_type":"survey-template","trial_index":3,"time_elapsed":207702,"internal_node_id":"0.0-3.0","task_version":"prescreen-v0.3","browser_interactions":0,"infrequency":0},{"responses":{"Q01":"3","Q02":"2","Q03":"2"},"rt":22491.36999998882,"radio_events":[10012.649999989662,17163.40499999933,21395.5949999945],"key_events":[],"mouse_events":[5190.854999993462,5593.044999986887,7195.6499999942025,10012.649999989662,17163.40499999933,21395.5949999945,22490.634999994654],"survey":"map","page":1,"trial_type":"survey-map","trial_index":4,"time_elapsed":230197,"internal_node_id":"0.0-4.0","task_version":"prescreen-v0.3","browser_interactions":0},{"responses":{"Q04":"2","Q05":"2","Q06":"2"},"rt":8105.680000007851,"radio_events":[4503.250000008848,5696.755000011763,7397.000000011758],"key_events":[],"mouse_events":[4503.250000008848,5696.755000011763,7397.000000011758,8105.045000003884],"survey":"map","page":2,"trial_type":"survey-map","trial_index":5,"time_elapsed":238305,"internal_node_id":"0.0-5.0","task_version":"prescreen-v0.3","browser_interactions":0},{"responses":{"Q07":"2","Q08":"1","Q09":"2"},"rt":16244.229999996605,"radio_events":[7594.929999992019,13452.659999995376,15761.039999997593],"key_events":[],"mouse_events":[7594.929999992019,13452.659999995376,15761.039999997593,16243.774999995367],"survey":"map","page":3,"trial_type":"survey-map","trial_index":6,"time_elapsed":254551,"internal_node_id":"0.0-6.0","task_version":"prescreen-v0.3","browser_interactions":0},{"responses":{"Q10":"2","Q11":"3","Q12":"1","Q13":"3","Q16":"0","Q14":"2","Q15":"2"},"rt":43519.324999986566,"radio_events":[10375.504999989062,11041.224999993574,15882.214999990538,21512.26499999757,22266.599999988102,31164.254999996047,37945.429999992484,41848.46999999718],"key_events":[],"mouse_events":[9607.234999988577,10375.504999989062,11041.224999993574,15882.214999990538,21512.26499999757,22266.599999988102,31164.254999996047,37945.429999992484,41256.474999987404,41848.46999999718,43518.309999999474],"survey":"map","page":4,"trial_type":"survey-map","trial_index":7,"time_elapsed":298074,"internal_node_id":"0.0-7.0","task_version":"prescreen-v0.3","browser_interactions":0,"infrequency":0},{"view_history":[{"page_index":0,"viewing_time":2511.3649999984773},{"page_index":1,"viewing_time":4449.554999999236}],"rt":6961.694999990868,"trial_type":"instructions","trial_index":8,"time_elapsed":305036,"internal_node_id":"0.0-8.0","task_version":"prescreen-v0.3"},{"responses":{"01":"No","02":"No","03":"No","04":"No","05":"No","06":"Yes","06_ages_12":"12","06_ages_13":"13","06_ages_14":"14","06_ages_15":"15"},"rt":52767.99999999639,"item_order":[0,1,2,3,4,5],"radio_events":[13524.229999995441,23349.659999992582,27940.999999991618,30712.96999999322,31906.91999999399,33550.84999999963,37779.25499998673],"checkbox_events":[42413.06500000064,43284.88999999536,45253.90999999945,45720.94999998808],"key_events":[],"mouse_events":[0.03999999898951501,13524.229999995441,22371.689999999944,22596.86999999394,23349.659999992582,27940.999999991618,30712.96999999322,31906.91999999399,33550.84999999963,37779.25499998673,42413.06500000064,43284.88999999536,45253.90999999945,45720.94999998808,52764.434999990044],"honeypot":0,"survey":"mace","page":1,"trial_type":"survey-mace","trial_index":9,"time_elapsed":357812,"internal_node_id":"0.0-9.0","task_version":"prescreen-v0.3","browser_interactions":0},{"responses":{"01":"No","02":"No","03":"Yes","03_ages_12":"12","03_ages_13":"13","03_ages_14":"14","03_ages_15":"15","04":"No","05":"No","06":"No","07":"No","08":"No"},"rt":24921.314999999595,"item_order":[0,1,2,3,4,5,6,7],"radio_events":[4031.814999994822,7041.019999989658,9154.739999998128,16949.79999998759,19688.75499999558,21547.949999992852,22937.65500000154,24152.96500000113],"checkbox_events":[10458.650000000489,10793.064999990747,11100.734999999986,11453.799999988405],"key_events":[],"mouse_events":[4031.814999994822,7041.019999989658,9154.739999998128,10458.650000000489,10793.064999990747,11100.734999999986,11453.799999988405,16949.79999998759,19688.75499999558,21547.949999992852,22937.65500000154,24152.96500000113,24917.0199999935],"honeypot":0,"survey":"mace","page":2,"trial_type":"survey-mace","trial_index":10,"time_elapsed":382735,"internal_node_id":"0.0-10.0","task_version":"prescreen-v0.3","browser_interactions":0},{"responses":{"01":"No","02":"No","03":"No","04":"No"},"rt":9381.745000006049,"item_order":[0,1,2,3],"radio_events":[4636.465000003227,5670.355000009295,7130.254999996396,7981.599999999162],"checkbox_events":[],"key_events":[],"mouse_events":[3670.1299999986077,3838.1349999981467,4636.465000003227,5670.355000009295,7130.254999996396,7981.599999999162,9379.450000007637],"honeypot":0,"survey":"mace","page":3,"trial_type":"survey-mace","trial_index":11,"time_elapsed":392119,"internal_node_id":"0.0-11.0","task_version":"prescreen-v0.3","browser_interactions":0},{"responses":{"01":"No","02":"No"},"rt":7604.794999992009,"item_order":[0,1],"radio_events":[5297.074999994948,6833.169999998063],"checkbox_events":[],"key_events":[],"mouse_events":[4430.0249999942025,4631.4449999918,5297.074999994948,6833.169999998063,7603.510000000824],"honeypot":0,"survey":"mace","page":4,"trial_type":"survey-mace","trial_index":12,"time_elapsed":399726,"internal_node_id":"0.0-12.0","task_version":"prescreen-v0.3","browser_interactions":0},{"responses":{"01":"Yes","01_ages_5":"5","01_ages_6":"6","01_ages_7":"7","01_ages_8":"8","01_ages_9":"9","01_ages_10":"10","01_ages_11":"11","01_ages_12":"12","01_ages_13":"13","01_ages_14":"14","02":"No","03":"No","04":"Yes","04_ages_5":"5","04_ages_6":"6","04_ages_7":"7","04_ages_8":"8","04_ages_9":"9","04_ages_10":"10","04_ages_11":"11","04_ages_12":"12","04_ages_13":"13","05":"No"},"rt":37481.47999998764,"item_order":[0,1,2,3,4],"radio_events":[8744.639999989886,22146.4399999968,26101.859999995213,29370.539999988978,36771.55499999935],"checkbox_events":[11767.034999997122,12280.57999999146,14500.819999986561,14938.569999998435,15248.424999997951,16392.51499999955,16837.17999998771,17271.434999987832,17753.649999998743,18150.209999992512,30595.2399999951,30901.754999998957,31565.73999999091,31897.20999999554,32230.234999995446,32584.514999995008,33060.874999995576,33405.28499998618,33823.29000000027],"key_events":[],"mouse_events":[8744.639999989886,10129.999999990105,11767.034999997122,12280.57999999146,14500.819999986561,14938.569999998435,15248.424999997951,15554.704999987734,15811.914999998407,16392.51499999955,16837.17999998771,17271.434999987832,17753.649999998743,18150.209999992512,22146.4399999968,26101.859999995213,29370.539999988978,30595.2399999951,30901.754999998957,31230.6799999933,31565.73999999091,31897.20999999554,32230.234999995446,32584.514999995008,33060.874999995576,33405.28499998618,33823.29000000027,36771.55499999935,37480.05499999272],"honeypot":0,"survey":"mace","page":5,"trial_type":"survey-mace","trial_index":13,"time_elapsed":437212,"internal_node_id":"0.0-13.0","task_version":"prescreen-v0.3","browser_interactions":0},{"responses":{"01":"No","02":"Yes","02_ages_13":"13","02_ages_14":"14","02_ages_15":"15","03":"Yes","03_ages_12":"12","03_ages_13":"13","04":"No","05":"No"},"rt":26104.154999993625,"item_order":[0,1,2,3,4],"radio_events":[9115.969999998924,10549.824999994598,18824.894999997923,22663.999999989755,25431.734999991022],"checkbox_events":[13513.164999996661,13821.96999998996,14463.055000000168,20444.83500000206,20823.989999989863],"key_events":[],"mouse_events":[5288.4849999973085,5519.00499999465,9115.969999998924,10002.039999992121,10549.824999994598,13513.164999996661,13821.96999998996,14124.109999989741,14463.055000000168,18824.894999997923,20444.83500000206,20823.989999989863,22663.999999989755,25431.734999991022,26101.209999993443],"honeypot":0,"survey":"mace","page":6,"trial_type":"survey-mace","trial_index":14,"time_elapsed":463319,"internal_node_id":"0.0-14.0","task_version":"prescreen-v0.3","browser_interactions":0},{"responses":{"01":"No","02":"No","03":"Yes","03_ages_6":"6","03_ages_7":"7","03_ages_8":"8","03_ages_9":"9","03_ages_10":"10","03_ages_11":"11","03_ages_12":"12","03_ages_13":"13","03_ages_14":"14","04":"No","05":"No","06":"No","07":"No"},"rt":22376.88999999955,"item_order":[0,1,2,3,4,5,6],"radio_events":[4415.529999998398,7601.550000006682,10020.590000000084,17389.704999994137,18880.22999999521,20688.099999999395,21596.294999995735],"checkbox_events":[11313.299999994342,11715.809999994235,12307.755000001634,12645.640000002459,13001.820000004955,13325.555000003078,13642.76499999687,15449.814999999944,16034.905000007711],"key_events":[],"mouse_events":[3734.584999998333,3936.6900000022724,4415.529999998398,7601.550000006682,9361.749999996391,10020.590000000084,11039.814999996452,11313.299999994342,11715.809999994235,12307.755000001634,12645.640000002459,13001.820000004955,13325.555000003078,13642.76499999687,13938.15000000177,14903.514999998151,15449.814999999944,16034.905000007711,17389.704999994137,18880.22999999521,20688.099999999395,21596.294999995735,22372.795000002952],"honeypot":0,"survey":"mace","page":7,"trial_type":"survey-mace","trial_index":15,"time_elapsed":485700,"internal_node_id":"0.0-15.0","task_version":"prescreen-v0.3","browser_interactions":0},{"responses":{"01":"Yes","01_ages_6":"6","01_ages_7":"7","01_ages_8":"8","01_ages_9":"9","01_ages_10":"10","01_ages_11":"11","01_ages_12":"12","01_ages_13":"13","01_ages_14":"14","02":"Yes","02_ages_6":"6","02_ages_7":"7","02_ages_8":"8","02_ages_9":"9","02_ages_10":"10","02_ages_11":"11","02_ages_12":"12","02_ages_13":"13","02_ages_14":"14","03":"No","04":"Yes","04_ages_6":"6","04_ages_7":"7","04_ages_8":"8","04_ages_9":"9","04_ages_10":"10","04_ages_11":"11","04_ages_12":"12","04_ages_13":"13"},"rt":38068.89500000398,"item_order":[0,1,2,3],"radio_events":[12698.445000001811,20765.385000006063,30382.09500000812,32930.35000000964],"checkbox_events":[13973.405000011553,14935.3800000099,15265.400000003865,15638.420000002952,15982.700000007753,16304.07000001287,16625.364999999874,16910.405000002356,17259.570000009262,21944.390000004205,22815.460000012536,23130.415000006906,23475.400000010268,24560.365000012098,24891.29500000854,25235.215000007884,25628.800000005867,26207.305000003544,33899.340000003576,34307.39000000176,34630.01000000804,35971.36500000488,36320.11000000057,36669.05000001134,36969.5950000023,37301.22000000847],"key_events":[],"mouse_events":[12698.445000001811,13973.405000011553,14309.235000007902,14935.3800000099,15265.400000003865,15638.420000002952,15982.700000007753,16304.07000001287,16625.364999999874,16910.405000002356,17259.570000009262,20765.385000006063,21944.390000004205,22264.23000000068,22815.460000012536,23130.415000006906,23475.400000010268,23810.365000012098,24560.365000012098,24891.29500000854,25235.215000007884,25628.800000005867,26207.305000003544,30382.09500000812,32930.35000000964,33899.340000003576,34307.39000000176,34630.01000000804,35016.50500000687,35395.4650000087,35971.36500000488,36320.11000000057,36669.05000001134,36969.5950000023,37301.22000000847,38066.500000000815],"honeypot":0,"survey":"mace","page":8,"trial_type":"survey-mace","trial_index":16,"time_elapsed":523771,"internal_node_id":"0.0-16.0","task_version":"prescreen-v0.3","browser_interactions":0},{"responses":{"01":"Yes","01_ages_1":"1","01_ages_2":"2","01_ages_3":"3","01_ages_4":"4","01_ages_5":"5","01_ages_6":"6","01_ages_7":"7","01_ages_8":"8","01_ages_9":"9","01_ages_10":"10","01_ages_11":"11","01_ages_12":"12","01_ages_13":"13","01_ages_14":"14","01_ages_15":"15","01_ages_16":"16","01_ages_17":"17","01_ages_18":"18","02":"Yes","02_ages_1":"1","02_ages_2":"2","02_ages_3":"3","02_ages_4":"4","02_ages_5":"5","02_ages_6":"6","02_ages_7":"7","02_ages_8":"8","02_ages_9":"9","02_ages_10":"10","02_ages_11":"11","02_ages_12":"12","02_ages_13":"13","02_ages_14":"14","02_ages_15":"15","02_ages_16":"16","02_ages_17":"17","02_ages_18":"18","03":"Yes","03_ages_1":"1","03_ages_2":"2","03_ages_3":"3","03_ages_4":"4","03_ages_5":"5","03_ages_6":"6","03_ages_7":"7","03_ages_8":"8","03_ages_9":"9","03_ages_10":"10","03_ages_11":"11","03_ages_12":"12","03_ages_13":"13","03_ages_14":"14","03_ages_15":"15","03_ages_16":"16","03_ages_17":"17","03_ages_18":"18","04":"Yes","04_ages_1":"1","04_ages_2":"2","04_ages_3":"3","04_ages_4":"4","04_ages_5":"5","04_ages_6":"6","04_ages_7":"7","04_ages_8":"8","04_ages_9":"9","04_ages_10":"10","04_ages_11":"11","04_ages_12":"12","04_ages_13":"13","04_ages_14":"14","04_ages_15":"15","04_ages_16":"16","04_ages_17":"17","04_ages_18":"18"},"rt":52462.4049999984,"item_order":[0,1,2,3],"radio_events":[5250.700000004144,18427.804999999353,23401.825000008103,26974.635000005946],"checkbox_events":[6781.824999998207,7090.865000005579,8333.899999997811,8608.475000000908,8945.885000008275,9302.899999995134,9598.50500000175,10168.860000005225,11129.740000003949,11474.249999999302,12052.410000003874,12360.990000001038,12676.879999999073,12997.849999999744,13364.824999996927,13709.870000006049,14538.91499999736,14921.839999995427,19669.429999994463,20115.084999997634,20429.3650000036,21089.810000004945,28439.890000008745,28789.684999996098,29872.910000005504,30213.665000002948,30586.605000004056,30949.17500000156,31266.524999999092,31628.7949999969,32330.750000008265,32832.909999997355,33160.73000000324,33978.369999997085,34338.830000007874,34718.85000000475,35544.17999999714,36148.79500000097,36547.35999999684,36981.75000000629,37353.47499999625,38070.785000003525,38439.34500000614,38814.1900000046,39267.49500000733,39587.83000000403,40334.89500000724,40705.669999995735,41407.279999999446,41738.81500000425,42091.775000008056,42512.16500000737,42941.21499999892,43409.99000000011,44170.509999996284,44574.81000000553,45017.934999996214,45385.840000002645,45791.77999999956,46231.48499999661,46577.8250000003,46929.61999999534,47329.88000000478,47766.969999996945,48145.44500000193,48551.85000000347,48941.854999997304,49503.8099999947,50078.550000005635,50495.34000000858,51062.235000004875,51910.780000005616],"key_events":[],"mouse_events":[4345.704999999725,4533.995000005234,5250.700000004144,6781.824999998207,7090.865000005579,7401.910000000498,8333.899999997811,8608.475000000908,8945.885000008275,9302.899999995134,9598.50500000175,10168.860000005225,10484.114999999292,11129.740000003949,11474.249999999302,11814.024999999674,12052.410000003874,12360.990000001038,12676.879999999073,12997.849999999744,13364.824999996927,13709.870000006049,14110.459999996237,14538.91499999736,14921.839999995427,18427.804999999353,19669.429999994463,20115.084999997634,20429.3650000036,20801.674999995157,21089.810000004945,23401.825000008103,26974.635000005946,28439.890000008745,28789.684999996098,29383.855000007316,29872.910000005504,30213.665000002948,30586.605000004056,30949.17500000156,31266.524999999092,31628.7949999969,31928.92999999458,32330.750000008265,32832.909999997355,33160.73000000324,33486.78000000655,33978.369999997085,34338.830000007874,34718.85000000475,35544.17999999714,36148.79500000097,36547.35999999684,36981.75000000629,37353.47499999625,37780.58000000601,38070.785000003525,38439.34500000614,38814.1900000046,39267.49500000733,39587.83000000403,40077.17499999853,40334.89500000724,40705.669999995735,41071.89500000095,41407.279999999446,41738.81500000425,42091.775000008056,42512.16500000737,42941.21499999892,43409.99000000011,44170.509999996284,44574.81000000553,45017.934999996214,45385.840000002645,45791.77999999956,46231.48499999661,46577.8250000003,46929.61999999534,47329.88000000478,47766.969999996945,48145.44500000193,48551.85000000347,48941.854999997304,49503.8099999947,50078.550000005635,50495.34000000858,51062.235000004875,51910.780000005616,52460.04000000539],"honeypot":0,"survey":"mace","page":9,"trial_type":"survey-mace","trial_index":17,"time_elapsed":576238,"internal_node_id":"0.0-17.0","task_version":"prescreen-v0.3","browser_interactions":0},{"responses":{"01":"No","02":"No","03":"No","04":"Yes","04_ages_6":"6","04_ages_7":"7","04_ages_8":"8","04_ages_9":"9","04_ages_10":"10","04_ages_11":"11","05":"Yes","05_ages_6":"6","05_ages_7":"7","05_ages_8":"8","05_ages_9":"9","05_ages_10":"10","06":"Yes","06_ages_17":"17","07":"Yes","07_ages_6":"6","07_ages_8":"8","07_ages_10":"10","07_ages_12":"12","07_ages_14":"14","08":"Yes","08_ages_10":"10","08_ages_11":"11","08_ages_12":"12","08_ages_13":"13","08_ages_14":"14","08_ages_15":"15"},"rt":49970.82000000228,"item_order":[0,1,2,3,4,5,6,7],"radio_events":[3701.2350000004517,4632.21500000509,6260.999999998603,7513.2400000002235,9755.875000002561,15546.675000005052,19198.365000003832,24582.150000002002,30003.960000001825,30852.090000000317,44485.16500000551],"checkbox_events":[10926.095000002533,11219.114999999874,11573.174999997718,12297.669999999925,12656.555000008666,13015.914999996312,20164.40500000317,21654.30500000366,22134.854999996605,22596.214999997756,22962.230000004638,26288.71999999683,38029.34500000265,38781.065000002855,39413.99000000092,39847.88500001014,40615.174999999,46502.12499999907,47364.8600000015,47710.3150000039,48623.81499999901,48971.180000007735,49321.04999999865],"key_events":[],"mouse_events":[3701.2350000004517,4632.21500000509,6260.999999998603,7513.2400000002235,9755.875000002561,10926.095000002533,11219.114999999874,11573.174999997718,11897.989999997662,12297.669999999925,12656.555000008666,13015.914999996312,15546.675000005052,19198.365000003832,20164.40500000317,20558.05500000133,21238.655000008293,21654.30500000366,22134.854999996605,22596.214999997756,22962.230000004638,24582.150000002002,26288.71999999683,30003.960000001825,30852.090000000317,38029.34500000265,38781.065000002855,39413.99000000092,39847.88500001014,40615.174999999,44485.16500000551,46502.12499999907,46822.650000001886,47364.8600000015,47710.3150000039,48060.02000000444,48623.81499999901,48971.180000007735,49321.04999999865,49966.22000000207],"honeypot":0,"survey":"mace","page":10,"trial_type":"survey-mace","trial_index":18,"time_elapsed":626214,"internal_node_id":"0.0-18.0","task_version":"prescreen-v0.3","browser_interactions":0,"instructed":0},{"rt":3754.7950000007404,"trial_type":"mental-health-alert","trial_index":19,"time_elapsed":629970,"internal_node_id":"0.0-19.0","task_version":"prescreen-v0.3","interactions":"[{\"event\":\"blur\",\"trial\":2,\"time\":126616},{\"event\":\"focus\",\"trial\":2,\"time\":127742}]"}]