[{"view_history":[{"page_index":0,"viewing_time":36102.299999952316},{"page_index":1,"viewing_time":3143},{"page_index":2,"viewing_time":2363.7999999523163},{"page_index":3,"viewing_time":7254.200000047684}],"rt":48864.89999997616,"trial_type":"instructions","trial_index":0,"time_elapsed":49460,"internal_node_id":"0.0-0.0","task_version":"prescreen-v0.3"},{"rt":17656.100000023842,"responses":{"age":"32","gender-categorical":"Female","gender-free-response":"","ethnicity":"Not Hispanic or Latino","race":["White"],"education":"Associate degree"},"trial_type":"survey-demo","trial_index":1,"time_elapsed":67182,"internal_node_id":"0.0-1.0","task_version":"prescreen-v0.3"},{"responses":{"Q18":"0","Q06":"1","Q17":"2","Q03":"0","Q16":"2","Q07":"1","Q21":"3","Q08":"3","Q14":"3","Q09":"3","Q10":"2","Q05":"1","Q20":"2","Q02":"0","Q12":"1","Q15":"2","Q04":"3","Q01":"2","Q19":"1","Q11":"2","Q13":"3"},"rt":161986.19999992847,"item_order":[17,5,16,2,15,6,20,7,13,8,9,4,19,1,11,14,3,0,18,10,12],"radio_events":[8459.699999928474,13652.799999952316,27820.899999976158,34053.699999928474,45063.59999990463,51088.39999997616,56912.09999990463,65440.799999952316,69081.89999997616,70242.39999997616,73514.39999997616,75290.39999997616,80251.09999990463,92012.29999995232,99316.5,109893.69999992847,139617.79999995232,144547.29999995232,149698.89999997616,154907.59999990463,159172,160853.19999992847],"key_events":[],"mouse_events":[8459.699999928474,13652.799999952316,27820.899999976158,34053.699999928474,45063.59999990463,51088.39999997616,56912.09999990463,65440.799999952316,69081.89999997616,70242.39999997616,73514.39999997616,75290.39999997616,80251.09999990463,92012.29999995232,99316.5,109893.69999992847,139617.79999995232,144547.29999995232,149698.89999997616,154907.59999990463,159172,160853.19999992847,161981.29999995232],"straightlining":0.3333333333333333,"zigzagging":0.65,"honeypot":0,"survey":"sns","trial_type":"survey-template","trial_index":2,"time_elapsed":229223,"internal_node_id":"0.0-2.0","task_version":"prescreen-v0.3","browser_interactions":0,"infrequency":0},{"responses":{"Q05":"3","Q04":"3","Q07":"3","Q06":"2","Q09":"1","Q08":"2","Q13":"0","Q10":"1","Q03":"3","Q11":"1","Q01":"2","Q12":"1","Q02":"3"},"rt":84168,"item_order":[4,3,6,5,8,7,12,9,2,10,0,11,1],"radio_events":[11315.800000071526,15044.800000071526,18332.800000071526,22180.700000047684,26245.300000071526,35550.10000002384,40406.89999997616,48240,54255.39999997616,57864.89999997616,62465.39999997616,78075.10000002384,81458.89999997616,82963.60000002384],"key_events":[],"mouse_events":[11315.800000071526,15044.800000071526,17780.300000071526,18332.800000071526,22180.700000047684,26245.300000071526,35550.10000002384,40406.89999997616,48240,54255.39999997616,57864.89999997616,62465.39999997616,78075.10000002384,81458.89999997616,82963.60000002384,84164.70000004768],"straightlining":0.38461538461538464,"zigzagging":0.5,"honeypot":0,"survey":"bisbas","trial_type":"survey-template","trial_index":3,"time_elapsed":313405,"internal_node_id":"0.0-3.0","task_version":"prescreen-v0.3","browser_interactions":0,"infrequency":0},{"responses":{"Q01":"2","Q02":"2","Q03":"4"},"rt":38083.10000002384,"radio_events":[10983.600000023842,15654.799999952316,31417,36401.699999928474],"key_events":[],"mouse_events":[10983.600000023842,15654.799999952316,31417,36401.699999928474,38081.39999997616],"survey":"map","page":1,"trial_type":"survey-map","trial_index":4,"time_elapsed":351502,"internal_node_id":"0.0-4.0","task_version":"prescreen-v0.3","browser_interactions":0},{"responses":{"Q04":"3","Q05":"3","Q06":"4"},"rt":16741,"radio_events":[5770,11532,15660],"key_events":[],"mouse_events":[5770,11532,15660,16739.600000023842],"survey":"map","page":2,"trial_type":"survey-map","trial_index":5,"time_elapsed":368255,"internal_node_id":"0.0-5.0","task_version":"prescreen-v0.3","browser_interactions":0},{"responses":{"Q07":"4","Q08":"4","Q09":"2"},"rt":24798,"radio_events":[11067.599999904633,17003.899999976158,23118.199999928474],"key_events":[],"mouse_events":[11067.599999904633,17003.899999976158,23118.199999928474,24796.899999976158],"survey":"map","page":3,"trial_type":"survey-map","trial_index":6,"time_elapsed":393066,"internal_node_id":"0.0-6.0","task_version":"prescreen-v0.3","browser_interactions":0},{"responses":{"Q10":"1","Q11":"0","Q12":"0","Q13":"0","Q16":"0","Q14":"3","Q15":"3"},"rt":73488.69999992847,"radio_events":[4372.599999904633,22128.099999904633,29424.399999976158,33529,37489.09999990463,48138.699999928474,71292.69999992847,72084.89999997616],"key_events":[],"mouse_events":[4372.599999904633,22128.099999904633,29424.399999976158,33529,37489.09999990463,47474.199999928474,48138.699999928474,71292.69999992847,72084.89999997616,73486.09999990463],"survey":"map","page":4,"trial_type":"survey-map","trial_index":7,"time_elapsed":466565,"internal_node_id":"0.0-7.0","task_version":"prescreen-v0.3","browser_interactions":0,"infrequency":0},{"view_history":[{"page_index":0,"viewing_time":2594},{"page_index":1,"viewing_time":3609.3000000715256}],"rt":6204.5,"trial_type":"instructions","trial_index":8,"time_elapsed":472778,"internal_node_id":"0.0-8.0","task_version":"prescreen-v0.3"},{"responses":{"01":"No","02":"Yes","02_ages_7":"7","02_ages_8":"8","02_ages_9":"9","02_ages_10":"10","03":"Yes","03_ages_9":"9","03_ages_10":"10","03_ages_11":"11","04":"No","05":"No","06":"No"},"rt":48859.5,"item_order":[0,1,2,3,4,5],"radio_events":[8165.5,12094.399999976158,32465.300000071526,44707.300000071526,45721.300000071526,47881.39999997616],"checkbox_events":[20415.600000023842,21054.5,21807.200000047684,22504.100000023842,27511.800000071526,28279.700000047684,35328.700000047684,36869.39999997616,39832.300000071526,40256.89999997616,41065.10000002384],"key_events":[],"mouse_events":[0.30000007152557373,8165.5,12094.399999976158,20415.600000023842,21054.5,21807.200000047684,22504.100000023842,27511.800000071526,28279.700000047684,32465.300000071526,35328.700000047684,36869.39999997616,39832.300000071526,40256.89999997616,41065.10000002384,44707.300000071526,45721.300000071526,47881.39999997616,48851.89999997616],"honeypot":0,"survey":"mace","page":1,"trial_type":"survey-mace","trial_index":9,"time_elapsed":521653,"internal_node_id":"0.0-9.0","task_version":"prescreen-v0.3","browser_interactions":0},{"responses":{"01":"No","02":"No","03":"Yes","03_ages_7":"7","04":"Yes","04_ages_7":"7","05":"No","06":"No","07":"No","08":"No"},"rt":30202.300000071526,"item_order":[0,1,2,3,4,5,6,7],"radio_events":[5518.5,9182.900000095367,10741.700000047684,17351.5,23501.600000023842,27120.700000047684,27959.300000071526,29135.5],"checkbox_events":[12742.200000047684,18711.800000071526,19774.800000071526,20535.300000071526,21192.100000023842,22039.900000095367],"key_events":[],"mouse_events":[5518.5,9182.900000095367,10741.700000047684,12742.200000047684,17351.5,18711.800000071526,19774.800000071526,20535.300000071526,21192.100000023842,22039.900000095367,23501.600000023842,27120.700000047684,27959.300000071526,29135.5,30193.200000047684],"honeypot":0,"survey":"mace","page":2,"trial_type":"survey-mace","trial_index":10,"time_elapsed":551872,"internal_node_id":"0.0-10.0","task_version":"prescreen-v0.3","browser_interactions":0},{"responses":{"01":"No","02":"No","03":"No","04":"No"},"rt":9212.5,"item_order":[0,1,2,3],"radio_events":[3095.8000000715256,5279.200000047684,6783.100000023842,7848],"checkbox_events":[],"key_events":[],"mouse_events":[3095.8000000715256,5279.200000047684,6783.100000023842,7848,9208.100000023842],"honeypot":0,"survey":"mace","page":3,"trial_type":"survey-mace","trial_index":11,"time_elapsed":561098,"internal_node_id":"0.0-11.0","task_version":"prescreen-v0.3","browser_interactions":0},{"responses":{"01":"Yes","01_ages_8":"8","02":"No"},"rt":29653.700000047684,"item_order":[0,1],"radio_events":[5200.600000023842,9482.200000047684,16737.700000047684,21514.300000071526],"checkbox_events":[6448.300000071526,26035.600000023842,26411.400000095367,26819.700000047684,27499.5],"key_events":[],"mouse_events":[5200.600000023842,6448.300000071526,9482.200000047684,16737.700000047684,21514.300000071526,26035.600000023842,26411.400000095367,26819.700000047684,27499.5,29650.900000095367],"honeypot":0,"survey":"mace","page":4,"trial_type":"survey-mace","trial_index":12,"time_elapsed":590763,"internal_node_id":"0.0-12.0","task_version":"prescreen-v0.3","browser_interactions":0},{"responses":{"01":"No","02":"No","03":"No","04":"No","05":"No"},"rt":18007.899999976158,"item_order":[0,1,2,3,4],"radio_events":[7751.699999928474,10482.399999976158,14079.799999952316,16528.600000023842,17280.199999928474],"checkbox_events":[],"key_events":[],"mouse_events":[7751.699999928474,10482.399999976158,14079.799999952316,16528.600000023842,17280.199999928474,18000.299999952316],"honeypot":0,"survey":"mace","page":5,"trial_type":"survey-mace","trial_index":13,"time_elapsed":608787,"internal_node_id":"0.0-13.0","task_version":"prescreen-v0.3","browser_interactions":0},{"responses":{"01":"No","02":"Yes","02_ages_7":"7","02_ages_8":"8","02_ages_12":"12","02_ages_15":"15","03":"Yes","03_ages_11":"11","03_ages_12":"12","03_ages_13":"13","04":"No","05":"No"},"rt":39049.199999928474,"item_order":[0,1,2,3,4],"radio_events":[9655.899999976158,12855.199999928474,26345.199999928474,36434.09999990463,38219.39999997616],"checkbox_events":[15727.899999976158,17063.799999952316,18440.699999928474,20536.199999928474,28098.199999928474,28730.199999928474,31682.899999976158],"key_events":[],"mouse_events":[9655.899999976158,12855.199999928474,15727.899999976158,17063.799999952316,18440.699999928474,20536.199999928474,25504.899999976158,26345.199999928474,28098.199999928474,28730.199999928474,31682.899999976158,36434.09999990463,38219.39999997616,39043.09999990463],"honeypot":0,"survey":"mace","page":6,"trial_type":"survey-mace","trial_index":14,"time_elapsed":647854,"internal_node_id":"0.0-14.0","task_version":"prescreen-v0.3","browser_interactions":0},{"responses":{"01":"No","02":"No","03":"No","04":"No","05":"No","06":"No","07":"No"},"rt":26302.899999976158,"item_order":[0,1,2,3,4,5,6],"radio_events":[6988.899999976158,12013.199999928474,14517.099999904633,17573.899999976158,18550,22654.399999976158,25718.199999928474],"checkbox_events":[],"key_events":[],"mouse_events":[6988.899999976158,12013.199999928474,14517.099999904633,17573.899999976158,18550,22654.399999976158,25718.199999928474,26293.899999976158],"honeypot":0,"survey":"mace","page":7,"trial_type":"survey-mace","trial_index":15,"time_elapsed":674174,"internal_node_id":"0.0-15.0","task_version":"prescreen-v0.3","browser_interactions":0},{"responses":{"01":"No","02":"No","03":"No","04":"No"},"rt":22842.100000023842,"item_order":[0,1,2,3],"radio_events":[11628.5,16317.299999952316,21709.799999952316,22373.799999952316],"checkbox_events":[],"key_events":[],"mouse_events":[11628.5,16317.299999952316,21709.799999952316,22373.799999952316,22837.600000023842],"honeypot":0,"survey":"mace","page":8,"trial_type":"survey-mace","trial_index":16,"time_elapsed":697034,"internal_node_id":"0.0-16.0","task_version":"prescreen-v0.3","browser_interactions":0},{"responses":{"01":"Yes","01_ages_1":"1","01_ages_2":"2","01_ages_3":"3","01_ages_4":"4","01_ages_5":"5","01_ages_6":"6","01_ages_7":"7","01_ages_8":"8","01_ages_9":"9","01_ages_10":"10","01_ages_11":"11","01_ages_12":"12","01_ages_13":"13","01_ages_14":"14","01_ages_15":"15","01_ages_16":"16","01_ages_17":"17","01_ages_18":"18","02":"Yes","02_ages_1":"1","02_ages_2":"2","02_ages_3":"3","02_ages_4":"4","02_ages_5":"5","02_ages_6":"6","02_ages_7":"7","02_ages_8":"8","02_ages_9":"9","02_ages_10":"10","02_ages_11":"11","02_ages_12":"12","02_ages_13":"13","02_ages_14":"14","02_ages_15":"15","02_ages_16":"16","02_ages_17":"17","02_ages_18":"18","03":"Yes","03_ages_1":"1","03_ages_2":"2","03_ages_3":"3","03_ages_4":"4","03_ages_5":"5","03_ages_6":"6","03_ages_7":"7","03_ages_8":"8","03_ages_9":"9","03_ages_10":"10","03_ages_11":"11","03_ages_12":"12","03_ages_13":"13","03_ages_14":"14","03_ages_15":"15","03_ages_16":"16","03_ages_17":"17","03_ages_18":"18","04":"Yes","04_ages_1":"1","04_ages_2":"2","04_ages_3":"3","04_ages_4":"4","04_ages_5":"5","04_ages_6":"6","04_ages_7":"7","04_ages_8":"8","04_ages_9":"9","04_ages_10":"10","04_ages_11":"11","04_ages_12":"12","04_ages_13":"13","04_ages_14":"14","04_ages_15":"15","04_ages_16":"16","04_ages_17":"17","04_ages_18":"18"},"rt":69977.90000009537,"item_order":[0,1,2,3],"radio_events":[7364.900000095367,26647.400000095367,38514.200000047684,56979.800000071526],"checkbox_events":[10167,10639.100000023842,11253.700000047684,13014.800000071526,14566.700000047684,15015.100000023842,15559.400000095367,15918.800000071526,16303.200000047684,16639,17047.300000071526,18030.700000047684,18414.600000023842,19446.900000095367,19840,20295.600000023842,21215.300000071526,21935.200000047684,27864.200000047684,28264.700000047684,28616.300000071526,29024.200000047684,29392.100000023842,29753.700000047684,30185.100000023842,30768.300000071526,31224.800000071526,31672.100000023842,32039.700000047684,32624.800000071526,33000.800000071526,33640.90000009537,34632.5,35208.40000009537,35704.800000071526,36344.300000071526,43163.10000002384,43538.300000071526,43890.90000009537,44322.10000002384,45051.700000047684,45554.10000002384,46377.800000071526,47075.5,47922.300000071526,48611.40000009537,49235.800000071526,49770.800000071526,50115.300000071526,51035.700000047684,51595.200000047684,52154.10000002384,52795,53227.5,58243.90000009537,59156.10000002384,59995.90000009537,60420.800000071526,60852.5,61244.60000002384,61821,62212.40000009537,62588.5,62964.5,63628.40000009537,64721.700000047684,64726.200000047684,64940.10000002384,65477.300000071526,66221.20000004768,66588.70000004768,67093.5,67686,68181],"key_events":[],"mouse_events":[7364.900000095367,10167,10639.100000023842,11253.700000047684,13014.800000071526,14566.700000047684,15015.100000023842,15559.400000095367,15918.800000071526,16303.200000047684,16639,17047.300000071526,17447.100000023842,18030.700000047684,18414.600000023842,19446.900000095367,19840,20295.600000023842,21215.300000071526,21935.200000047684,26647.400000095367,27864.200000047684,28264.700000047684,28616.300000071526,29024.200000047684,29392.100000023842,29753.700000047684,30185.100000023842,30768.300000071526,31224.800000071526,31672.100000023842,32039.700000047684,32624.800000071526,33000.800000071526,33640.90000009537,34632.5,35208.40000009537,35704.800000071526,36344.300000071526,38514.200000047684,43163.10000002384,43538.300000071526,43890.90000009537,44322.10000002384,45051.700000047684,45554.10000002384,46377.800000071526,47075.5,47922.300000071526,48611.40000009537,49235.800000071526,49770.800000071526,50115.300000071526,50467.60000002384,51035.700000047684,51595.200000047684,52154.10000002384,52795,53227.5,56979.800000071526,58243.90000009537,58444.40000009537,59156.10000002384,59627.300000071526,59995.90000009537,60420.800000071526,60852.5,61244.60000002384,61821,62212.40000009537,62588.5,62964.5,63301,63628.40000009537,64721.700000047684,64726.200000047684,64940.10000002384,65477.300000071526,66221.20000004768,66588.70000004768,67093.5,67686,68181,69973.5],"honeypot":0,"survey":"mace","page":9,"trial_type":"survey-mace","trial_index":17,"time_elapsed":767026,"internal_node_id":"0.0-17.0","task_version":"prescreen-v0.3","browser_interactions":0},{"responses":{"01":"No","02":"No","03":"No","04":"Yes","04_ages_10":"10","04_ages_11":"11","04_ages_12":"12","04_ages_13":"13","04_ages_14":"14","04_ages_15":"15","04_ages_16":"16","04_ages_17":"17","04_ages_18":"18","05":"Yes","05_ages_9":"9","05_ages_10":"10","05_ages_11":"11","05_ages_12":"12","05_ages_13":"13","05_ages_14":"14","06":"Yes","06_ages_17":"17","07":"Yes","07_ages_1":"1","07_ages_2":"2","07_ages_3":"3","07_ages_4":"4","07_ages_5":"5","07_ages_6":"6","07_ages_7":"7","07_ages_8":"8","07_ages_9":"9","07_ages_10":"10","07_ages_11":"11","07_ages_12":"12","07_ages_13":"13","07_ages_14":"14","07_ages_15":"15","07_ages_16":"16","07_ages_17":"17","07_ages_18":"18","08":"Yes","08_ages_1":"1","08_ages_2":"2","08_ages_3":"3","08_ages_4":"4","08_ages_5":"5","08_ages_6":"6","08_ages_7":"7","08_ages_8":"8","08_ages_9":"9","08_ages_10":"10","08_ages_11":"11","08_ages_12":"12","08_ages_13":"13","08_ages_14":"14","08_ages_15":"15","08_ages_16":"16","08_ages_17":"17","08_ages_18":"18"},"rt":64076.09999990463,"item_order":[0,1,2,3,4,5,6,7],"radio_events":[3509.1999999284744,4644.5,6301,9244.599999904633,17709.899999976158,27759.199999928474,35207.199999928474,48849.699999928474],"checkbox_events":[10869.399999976158,11325,11701.099999904633,12205.199999928474,12565.199999928474,13156.899999976158,13494.899999976158,13886.399999976158,14253.099999904633,20998.5,21349.5,21742.099999904633,22261.799999952316,22687.599999904633,23191.199999928474,23631,25318.399999976158,28934.5,36817,37272.199999928474,37847.799999952316,38241.5,38624.89999997616,39312.89999997616,39688.89999997616,40328.5,40793.09999990463,41320.89999997616,41784.39999997616,42312.09999990463,42809.89999997616,43520.5,44304.39999997616,44776.39999997616,45441.199999928474,46544.199999928474,51409.299999952316,51713.39999997616,52425.299999952316,53153.09999990463,53841,54530.199999928474,55346.699999928474,55857.89999997616,56290.39999997616,56970.39999997616,57546.39999997616,58091,58594.39999997616,59154.199999928474,59610.59999990463,60539.59999990463,61122.59999990463,61787.09999990463],"key_events":[],"mouse_events":[3509.1999999284744,4644.5,6301,9244.599999904633,10869.399999976158,11325,11701.099999904633,12205.199999928474,12565.199999928474,13156.899999976158,13494.899999976158,13886.399999976158,14253.099999904633,17709.899999976158,20998.5,21349.5,21742.099999904633,22261.799999952316,22687.599999904633,23191.199999928474,23631,25318.399999976158,27759.199999928474,28934.5,35207.199999928474,36200.699999928474,36817,37272.199999928474,37847.799999952316,38241.5,38624.89999997616,39312.89999997616,39688.89999997616,40328.5,40793.09999990463,41320.89999997616,41784.39999997616,42312.09999990463,42809.89999997616,43520.5,44304.39999997616,44776.39999997616,45441.199999928474,46544.199999928474,48849.699999928474,51409.299999952316,51713.39999997616,52425.299999952316,52825.199999928474,53153.09999990463,53841,54530.199999928474,55346.699999928474,55857.89999997616,56290.39999997616,56657.799999952316,56970.39999997616,57546.39999997616,58091,58594.39999997616,59154.199999928474,59610.59999990463,60539.59999990463,61122.59999990463,61787.09999990463,64067.199999928474],"honeypot":0,"survey":"mace","page":10,"trial_type":"survey-mace","trial_index":18,"time_elapsed":831119,"internal_node_id":"0.0-18.0","task_version":"prescreen-v0.3","browser_interactions":0,"instructed":0},{"rt":4537.100000023842,"trial_type":"mental-health-alert","trial_index":19,"time_elapsed":835668,"internal_node_id":"0.0-19.0","task_version":"prescreen-v0.3","interactions":"[]"}]