[{"view_history":[{"page_index":0,"viewing_time":3653.7999999523163},{"page_index":1,"viewing_time":2082.2999999523163},{"page_index":2,"viewing_time":3929},{"page_index":3,"viewing_time":1305.0999999046326}],"rt":10971.599999904633,"trial_type":"instructions","trial_index":0,"time_elapsed":11002,"internal_node_id":"0.0-0.0","task_version":"prescreen-v0.3"},{"rt":22032.799999952316,"responses":{"age":"31","gender-categorical":"Male","gender-free-response":"","ethnicity":"Hispanic or Latino","race":["Rather not say"],"education":"Bachelor degree","siblings":"2"},"trial_type":"survey-demo","trial_index":1,"time_elapsed":33054,"internal_node_id":"0.0-1.0","task_version":"prescreen-v0.3"},{"responses":{"Q20":"0","Q08":"1","Q17":"1","Q09":"2","Q07":"1","Q05":"0","Q12":"1","Q19":"1","Q13":"0","Q04":"1","Q06":"1","Q21":"3","Q02":"1","Q15":"1","Q18":"1","Q11":"2","Q16":"0","Q03":"0","Q14":"0","Q10":"1","Q01":"1"},"rt":150065,"item_order":[19,7,16,8,6,4,11,18,12,3,5,20,1,14,17,10,15,2,13,9,0],"radio_events":[4460.5,9071.399999856949,13131.099999904633,17327.599999904633,22747.599999904633,30291.799999952316,36151,79204.5,81669.20000004768,87508.70000004768,97360.29999995232,100196.79999995232,110484.89999985695,115906,119718.59999990463,123855.20000004768,133935.39999985695,137371.89999985695,140705.09999990463,146717.09999990463,149180.39999985695],"key_events":[],"mouse_events":[4460.5,9071.399999856949,13131.099999904633,17327.599999904633,22747.599999904633,30291.799999952316,36151,79204.5,81669.20000004768,87508.70000004768,97360.29999995232,99500.59999990463,100196.79999995232,110484.89999985695,114693.5,115906,119025.59999990463,119718.59999990463,123855.20000004768,132708.29999995232,133424,133935.39999985695,137371.89999985695,140705.09999990463,146717.09999990463,149180.39999985695,150057.79999995232],"straightlining":0.5714285714285714,"zigzagging":0.45,"honeypot":0,"survey":"sns","trial_type":"survey-template","trial_index":2,"time_elapsed":183132,"internal_node_id":"0.0-2.0","task_version":"prescreen-v0.3","browser_interactions":0,"infrequency":0},{"responses":{"Q12":"1","Q05":"3","Q02":"2","Q06":"3","Q13":"0","Q11":"1","Q01":"2","Q07":"3","Q08":"3","Q10":"2","Q04":"2","Q09":"1","Q03":"2"},"rt":65161.40000009537,"item_order":[11,4,1,5,12,10,0,6,7,9,3,8,2],"radio_events":[13391.700000047684,17140.799999952316,30878.799999952316,36457.90000009537,38622.90000009537,42202.200000047684,45806.200000047684,48230.59999990463,50858.90000009537,54014.299999952316,54870.200000047684,58685.90000009537,60930.09999990463,64420.299999952316],"key_events":[],"mouse_events":[13391.700000047684,15687.900000095367,16436.299999952316,17140.799999952316,30878.799999952316,36457.90000009537,38622.90000009537,41578.299999952316,42202.200000047684,44657.799999952316,45222.799999952316,45806.200000047684,48230.59999990463,50858.90000009537,53034.90000009537,54014.299999952316,54870.200000047684,58685.90000009537,60930.09999990463,64420.299999952316,65157],"straightlining":0.38461538461538464,"zigzagging":0.75,"honeypot":0,"survey":"bisbas","trial_type":"survey-template","trial_index":3,"time_elapsed":248301,"internal_node_id":"0.0-3.0","task_version":"prescreen-v0.3","browser_interactions":0,"infrequency":0},{"responses":{"Q01":"3","Q02":"4","Q03":"3"},"rt":18508.400000095367,"radio_events":[9069.5,13341.5,17857.799999952316],"key_events":[],"mouse_events":[9069.5,12645.900000095367,13341.5,17857.799999952316,18506.400000095367],"survey":"map","page":1,"trial_type":"survey-map","trial_index":4,"time_elapsed":266814,"internal_node_id":"0.0-4.0","task_version":"prescreen-v0.3","browser_interactions":0},{"responses":{"Q04":"2","Q05":"3","Q06":"3"},"rt":12730.200000047684,"radio_events":[4526.5,8060.700000047684,11504.799999952316],"key_events":[],"mouse_events":[4526.5,8060.700000047684,11504.799999952316,12728.5],"survey":"map","page":2,"trial_type":"survey-map","trial_index":5,"time_elapsed":279550,"internal_node_id":"0.0-5.0","task_version":"prescreen-v0.3","browser_interactions":0},{"responses":{"Q07":"3","Q08":"4","Q09":"2"},"rt":12541.5,"radio_events":[6134.200000047684,9978.899999856949,11851.399999856949],"key_events":[],"mouse_events":[5401.599999904633,6134.200000047684,9270.899999856949,9978.899999856949,11851.399999856949,12539.599999904633],"survey":"map","page":3,"trial_type":"survey-map","trial_index":6,"time_elapsed":292096,"internal_node_id":"0.0-6.0","task_version":"prescreen-v0.3","browser_interactions":0},{"responses":{"Q10":"3","Q11":"2","Q12":"1","Q13":"2","Q16":"0","Q14":"3","Q15":"4"},"rt":27875.5,"radio_events":[5867.700000047684,9052.200000047684,14130.700000047684,17871.400000095367,21263.200000047684,23898.60000014305,27352.400000095367],"key_events":[],"mouse_events":[5867.700000047684,9052.200000047684,14130.700000047684,17242.700000047684,17871.400000095367,21263.200000047684,23898.60000014305,27352.400000095367,27871.900000095367],"survey":"map","page":4,"trial_type":"survey-map","trial_index":7,"time_elapsed":319978,"internal_node_id":"0.0-7.0","task_version":"prescreen-v0.3","browser_interactions":0,"infrequency":0},{"view_history":[{"page_index":0,"viewing_time":2892.2999999523163},{"page_index":1,"viewing_time":4419.700000047684}],"rt":7313.299999952316,"trial_type":"instructions","trial_index":8,"time_elapsed":327294,"internal_node_id":"0.0-8.0","task_version":"prescreen-v0.3"},{"responses":{"01":"No","02":"No","03":"Yes","03_ages_4":"4","03_ages_5":"5","03_ages_6":"6","03_ages_7":"7","03_ages_8":"8","04":"No","05":"No","06":"No"},"rt":48081.799999952316,"item_order":[0,1,2,3,4,5],"radio_events":[19456.89999985695,24113.099999904633,26142,38749.59999990463,40572.39999985695,45465],"checkbox_events":[32098.099999904633,32602.299999952316,33125.89999985695,33733.89999985695,34286.5],"key_events":[],"mouse_events":[0.09999990463256836,19456.89999985695,24113.099999904633,26142,32098.099999904633,32602.299999952316,33125.89999985695,33733.89999985695,34286.5,38749.59999990463,40572.39999985695,45465,48075.700000047684],"honeypot":0,"survey":"mace","page":1,"trial_type":"survey-mace","trial_index":9,"time_elapsed":375388,"internal_node_id":"0.0-9.0","task_version":"prescreen-v0.3","browser_interactions":0},{"responses":{"01":"No","02":"No","03":"Yes","03_ages_4":"4","03_ages_5":"5","03_ages_6":"6","03_ages_7":"7","03_ages_8":"8","04":"No","05":"No","06":"No","07":"No","08":"No"},"rt":26819,"item_order":[0,1,2,3,4,5,6,7],"radio_events":[3780.100000143051,7416,10337.200000047684,18861.10000014305,21273.799999952316,23354.10000014305,24847.299999952316,26231.5],"checkbox_events":[11950.200000047684,12454.5,13582.700000047684,14110.900000095367,14663.200000047684],"key_events":[],"mouse_events":[3780.100000143051,7416,10337.200000047684,11950.200000047684,12454.5,12990.799999952316,13582.700000047684,14110.900000095367,14663.200000047684,18861.10000014305,21273.799999952316,22665.60000014305,23354.10000014305,24847.299999952316,26231.5,26807.799999952316],"honeypot":0,"survey":"mace","page":2,"trial_type":"survey-mace","trial_index":10,"time_elapsed":402214,"internal_node_id":"0.0-10.0","task_version":"prescreen-v0.3","browser_interactions":0},{"responses":{"01":"No","02":"No","03":"No","04":"No"},"rt":12390.399999856949,"item_order":[0,1,2,3],"radio_events":[5880.599999904633,10118.099999904633,11006.700000047684,11710.399999856949],"checkbox_events":[],"key_events":[],"mouse_events":[5880.599999904633,10118.099999904633,11006.700000047684,11710.399999856949,12383.399999856949],"honeypot":0,"survey":"mace","page":3,"trial_type":"survey-mace","trial_index":11,"time_elapsed":414608,"internal_node_id":"0.0-11.0","task_version":"prescreen-v0.3","browser_interactions":0},{"responses":{"01":"No","02":"No"},"rt":3598.7999999523163,"item_order":[0,1],"radio_events":[2162.2000000476837,3050.7000000476837],"checkbox_events":[],"key_events":[],"mouse_events":[2162.2000000476837,3050.7000000476837,3594.9000000953674],"honeypot":0,"survey":"mace","page":4,"trial_type":"survey-mace","trial_index":12,"time_elapsed":418210,"internal_node_id":"0.0-12.0","task_version":"prescreen-v0.3","browser_interactions":0},{"responses":{"01":"No","02":"No","03":"No","04":"No","05":"No"},"rt":31129,"item_order":[0,1,2,3,4],"radio_events":[19802.900000095367,22984.200000047684,26203,28419.400000095367,30560.10000014305],"checkbox_events":[],"key_events":[],"mouse_events":[19802.900000095367,22984.200000047684,26203,28419.400000095367,30560.10000014305,31120],"honeypot":0,"survey":"mace","page":5,"trial_type":"survey-mace","trial_index":13,"time_elapsed":449345,"internal_node_id":"0.0-13.0","task_version":"prescreen-v0.3","browser_interactions":0},{"responses":{"01":"Yes","01_ages_4":"4","01_ages_5":"5","01_ages_6":"6","01_ages_7":"7","01_ages_8":"8","01_ages_9":"9","01_ages_10":"10","01_ages_11":"11","01_ages_12":"12","01_ages_13":"13","01_ages_14":"14","02":"Yes","02_ages_10":"10","02_ages_11":"11","02_ages_12":"12","02_ages_13":"13","02_ages_14":"14","02_ages_15":"15","02_ages_16":"16","03":"No","04":"No","05":"No"},"rt":31085.299999952316,"item_order":[0,1,2,3,4],"radio_events":[5873.400000095367,19302.700000047684,28632.5,29756.200000047684,30508.799999952316],"checkbox_events":[7218.400000095367,8509.799999952316,9102,9630.5,10846.400000095367,11462.5,12087,12674.799999952316,13763.099999904633,14563.299999952316,15219.299999952316,20246.599999904633,21347.099999904633,21899,22506.799999952316,23651.299999952316,24251.400000095367,25575.599999904633],"key_events":[],"mouse_events":[5873.400000095367,7218.400000095367,7810.099999904633,8509.799999952316,9102,9630.5,10142.299999952316,10846.400000095367,11462.5,12087,12674.799999952316,13763.099999904633,14563.299999952316,15219.299999952316,19302.700000047684,20246.599999904633,20795.099999904633,21347.099999904633,21899,22506.799999952316,23107.799999952316,23651.299999952316,24251.400000095367,25575.599999904633,28632.5,29756.200000047684,30508.799999952316,31077],"honeypot":0,"survey":"mace","page":6,"trial_type":"survey-mace","trial_index":14,"time_elapsed":480435,"internal_node_id":"0.0-14.0","task_version":"prescreen-v0.3","browser_interactions":0},{"responses":{"01":"No","02":"Yes","02_ages_4":"4","02_ages_5":"5","02_ages_6":"6","02_ages_7":"7","02_ages_8":"8","02_ages_9":"9","02_ages_10":"10","02_ages_11":"11","02_ages_12":"12","02_ages_13":"13","02_ages_14":"14","03":"No","04":"No","05":"No","06":"No","07":"No"},"rt":29392.89999985695,"item_order":[0,1,2,3,4,5,6],"radio_events":[1859.3999998569489,4039.7000000476837,6160.899999856949,21842.5,24647.5,26896.700000047684,27977.700000047684,28830.099999904633],"checkbox_events":[7693.899999856949,9582.700000047684,10142.599999904633,10634.5,11227,12099.299999952316,12707.5,13564.399999856949,14084.399999856949,14620.200000047684,15240.599999904633],"key_events":[],"mouse_events":[1859.3999998569489,4039.7000000476837,6160.899999856949,7693.899999856949,9582.700000047684,10142.599999904633,10634.5,11227,12099.299999952316,12707.5,13564.399999856949,14084.399999856949,14620.200000047684,15240.599999904633,21842.5,24647.5,26896.700000047684,27977.700000047684,28830.099999904633,29382.5],"honeypot":0,"survey":"mace","page":7,"trial_type":"survey-mace","trial_index":15,"time_elapsed":509817,"internal_node_id":"0.0-15.0","task_version":"prescreen-v0.3","browser_interactions":0},{"responses":{"01":"No","02":"No","03":"No","04":"No"},"rt":23139.799999952316,"item_order":[0,1,2,3],"radio_events":[12549,16948.5,20285.89999985695,22587.099999904633],"checkbox_events":[],"key_events":[],"mouse_events":[12549,16948.5,20285.89999985695,22587.099999904633,23132.200000047684],"honeypot":0,"survey":"mace","page":8,"trial_type":"survey-mace","trial_index":16,"time_elapsed":532958,"internal_node_id":"0.0-16.0","task_version":"prescreen-v0.3","browser_interactions":0},{"responses":{"01":"Yes","01_ages_1":"1","01_ages_2":"2","01_ages_3":"3","01_ages_4":"4","01_ages_5":"5","01_ages_6":"6","01_ages_7":"7","01_ages_8":"8","01_ages_9":"9","01_ages_10":"10","01_ages_11":"11","01_ages_12":"12","01_ages_13":"13","01_ages_14":"14","01_ages_15":"15","01_ages_16":"16","01_ages_17":"17","01_ages_18":"18","02":"Yes","02_ages_1":"1","02_ages_2":"2","02_ages_3":"3","02_ages_4":"4","02_ages_5":"5","02_ages_6":"6","02_ages_7":"7","02_ages_8":"8","02_ages_9":"9","02_ages_10":"10","02_ages_11":"11","02_ages_12":"12","02_ages_13":"13","02_ages_14":"14","02_ages_15":"15","02_ages_16":"16","02_ages_17":"17","02_ages_18":"18","03":"Yes","03_ages_1":"1","03_ages_2":"2","03_ages_3":"3","03_ages_4":"4","03_ages_5":"5","03_ages_6":"6","03_ages_7":"7","03_ages_8":"8","03_ages_9":"9","03_ages_10":"10","03_ages_11":"11","03_ages_12":"12","03_ages_13":"13","03_ages_14":"14","03_ages_15":"15","03_ages_16":"16","03_ages_17":"17","03_ages_18":"18","04":"Yes","04_ages_1":"1","04_ages_2":"2","04_ages_3":"3","04_ages_4":"4","04_ages_5":"5","04_ages_6":"6","04_ages_7":"7","04_ages_8":"8","04_ages_9":"9","04_ages_10":"10","04_ages_11":"11","04_ages_12":"12","04_ages_13":"13","04_ages_14":"14","04_ages_15":"15","04_ages_16":"16","04_ages_17":"17","04_ages_18":"18"},"rt":75197.09999990463,"item_order":[0,1,2,3],"radio_events":[2970.199999809265,24410.299999952316,27475.199999809265,33756.5],"checkbox_events":[8927.099999904633,9494.899999856949,10071,10590.899999856949,11235.299999952316,12179.399999856949,12651.799999952316,13755.699999809265,14259.899999856949,14932.599999904633,15732.099999904633,16461.299999952316,17013,17493,18509,19228.89999985695,19837.5,20437.799999952316,37964.299999952316,38520.5,39048.799999952316,39865.199999809265,40408.89999985695,40969,41528.89999985695,42797.89999985695,43525.59999990463,44101.59999990463,44893.799999952316,45501.89999985695,46061.299999952316,46605.799999952316,47169.5,47777.5,48449.799999952316,49201.199999809265,50017.199999809265,50601.5,51165.5,51653.09999990463,52845.699999809265,55122.199999809265,55649.199999809265,56152.699999809265,57392.699999809265,57992.699999809265,58528.59999990463,59176.799999952316,59756.59999990463,60300.5,60924.199999809265,61476.299999952316,62068.199999809265,62635.89999985695,63963.89999985695,64516.09999990463,65692.29999995232,66252.19999980927,66804.59999990463,67352.5,67904.5,68504.39999985695,69073.59999990463,69608.69999980927,70144.79999995232,70880.79999995232,71501.09999990463,72077.59999990463,72837.29999995232,73581.29999995232,74077.5,74589.5],"key_events":[],"mouse_events":[2970.199999809265,7974.399999856949,8927.099999904633,9494.899999856949,10071,10590.899999856949,11235.299999952316,12179.399999856949,12651.799999952316,13155.599999904633,13755.699999809265,14259.899999856949,14932.599999904633,15732.099999904633,16461.299999952316,17013,17493,18004.5,18509,19228.89999985695,19837.5,20437.799999952316,24410.299999952316,27475.199999809265,33756.5,37964.299999952316,38520.5,39048.799999952316,39865.199999809265,40408.89999985695,40969,41528.89999985695,42137.199999809265,42797.89999985695,43525.59999990463,44101.59999990463,44893.799999952316,45501.89999985695,46061.299999952316,46605.799999952316,47169.5,47777.5,48449.799999952316,49201.199999809265,50017.199999809265,50601.5,51165.5,51653.09999990463,52189.799999952316,52845.699999809265,53429.39999985695,55122.199999809265,55649.199999809265,56152.699999809265,56784.799999952316,57392.699999809265,57992.699999809265,58528.59999990463,59176.799999952316,59756.59999990463,60300.5,60924.199999809265,61476.299999952316,62068.199999809265,62635.89999985695,63963.89999985695,64516.09999990463,65692.29999995232,66252.19999980927,66804.59999990463,67352.5,67904.5,68504.39999985695,69073.59999990463,69608.69999980927,70144.79999995232,70880.79999995232,71501.09999990463,72077.59999990463,72837.29999995232,73581.29999995232,74077.5,74589.5,75190.09999990463],"honeypot":0,"survey":"mace","page":9,"trial_type":"survey-mace","trial_index":17,"time_elapsed":608159,"internal_node_id":"0.0-17.0","task_version":"prescreen-v0.3","browser_interactions":0},{"responses":{"01":"No","02":"No","03":"No","04":"No","05":"No","06":"Yes","06_ages_17":"17","07":"Yes","07_ages_1":"1","07_ages_2":"2","07_ages_3":"3","07_ages_4":"4","07_ages_5":"5","07_ages_6":"6","07_ages_7":"7","07_ages_8":"8","07_ages_9":"9","07_ages_10":"10","07_ages_11":"11","07_ages_12":"12","07_ages_13":"13","07_ages_14":"14","07_ages_15":"15","07_ages_16":"16","07_ages_17":"17","07_ages_18":"18","08":"Yes","08_ages_1":"1","08_ages_2":"2","08_ages_3":"3","08_ages_4":"4","08_ages_5":"5","08_ages_6":"6","08_ages_7":"7","08_ages_8":"8","08_ages_9":"9","08_ages_10":"10","08_ages_11":"11","08_ages_12":"12","08_ages_13":"13","08_ages_14":"14","08_ages_15":"15","08_ages_16":"16","08_ages_17":"17","08_ages_18":"18"},"rt":51807.60000014305,"item_order":[0,1,2,3,4,5,6,7],"radio_events":[3383.100000143051,4263,6283.300000190735,8203.400000095367,10399.600000143051,11463.400000095367,19475.10000014305,25295.900000095367,26987.10000014305],"checkbox_events":[13056,28268.400000095367,28899.200000047684,29547.5,30871.5,31623.900000095367,32230.300000190735,32808.10000014305,33320.10000014305,33944.200000047684,34560.60000014305,35196.60000014305,35740.800000190735,36277.200000047684,36829.10000014305,37365.200000047684,37997.300000190735,38589.40000009537,39365.40000009537,40258.10000014305,40802.40000009537,41354.800000190735,41922.90000009537,42426.700000047684,42994.90000009537,43579.5,44175.200000047684,44759.60000014305,45247.5,45831.5,46447.700000047684,47055.40000009537,47591.5,48211.60000014305,48755.700000047684,49300,49867.800000190735],"key_events":[],"mouse_events":[3383.100000143051,4263,5355.200000047684,6283.300000190735,8203.400000095367,10399.600000143051,11463.400000095367,13056,19475.10000014305,25295.900000095367,26987.10000014305,28268.400000095367,28899.200000047684,29547.5,30091.60000014305,30871.5,31623.900000095367,32230.300000190735,32808.10000014305,33320.10000014305,33944.200000047684,34560.60000014305,35196.60000014305,35740.800000190735,36277.200000047684,36829.10000014305,37365.200000047684,37997.300000190735,38589.40000009537,39365.40000009537,40258.10000014305,40802.40000009537,41354.800000190735,41922.90000009537,42426.700000047684,42994.90000009537,43579.5,44175.200000047684,44759.60000014305,45247.5,45831.5,46447.700000047684,47055.40000009537,47591.5,48211.60000014305,48755.700000047684,49300,49867.800000190735,51796.5],"honeypot":0,"survey":"mace","page":10,"trial_type":"survey-mace","trial_index":18,"time_elapsed":659973,"internal_node_id":"0.0-18.0","task_version":"prescreen-v0.3","browser_interactions":0,"instructed":0},{"rt":4667.700000047684,"trial_type":"mental-health-alert","trial_index":19,"time_elapsed":664644,"internal_node_id":"0.0-19.0","task_version":"prescreen-v0.3","interactions":"[]"}]