[{"view_history":[{"page_index":0,"viewing_time":2732},{"page_index":1,"viewing_time":3492},{"page_index":2,"viewing_time":2569},{"page_index":3,"viewing_time":1286}],"rt":10079,"trial_type":"instructions","trial_index":0,"time_elapsed":10084,"internal_node_id":"0.0-0.0","task_version":"prescreen-v0.3"},{"rt":35151,"responses":{"age":"28","gender-categorical":"Female","gender-free-response":"","ethnicity":"Not Hispanic or Latino","race":["White"],"education":"Master degree or higher"},"trial_type":"survey-demo","trial_index":1,"time_elapsed":45246,"internal_node_id":"0.0-1.0","task_version":"prescreen-v0.3"},{"responses":{"Q16":"2","Q07":"1","Q13":"1","Q01":"2","Q04":"1","Q20":"2","Q12":"0","Q17":"0","Q03":"0","Q06":"1","Q10":"1","Q09":"1","Q18":"1","Q19":"0","Q05":"1","Q11":"1","Q14":"2","Q21":"3","Q08":"2","Q15":"2","Q02":"0"},"rt":74759,"item_order":[15,6,12,0,3,19,11,16,2,5,9,8,17,18,4,10,13,20,7,14,1],"radio_events":[14315,21232,22867,25620,27842,28703,30630,34448,37347,38771,44757,47443,49962,52387,55814,58817,60578,62470,65746,67682,69939,73296],"key_events":[],"mouse_events":[14315,21232,22867,25620,27842,28703,30630,34448,37347,38771,44757,47443,49962,52387,55814,58817,60578,62470,65746,67682,69939,72804,73296,74758],"straightlining":0.42857142857142855,"zigzagging":0.5,"honeypot":0,"survey":"sns","trial_type":"survey-template","trial_index":2,"time_elapsed":120016,"internal_node_id":"0.0-2.0","task_version":"prescreen-v0.3","browser_interactions":0,"infrequency":0},{"responses":{"Q08":"1","Q03":"3","Q13":"0","Q05":"2","Q12":"1","Q10":"2","Q11":"1","Q09":"1","Q01":"3","Q04":"3","Q02":"3","Q06":"3","Q07":"2"},"rt":44377,"item_order":[7,2,12,4,11,9,10,8,0,3,1,5,6],"radio_events":[9548,11817,13161,15871,20775,23416,26433,28944,31245,32791,35777,37819,40518,42779],"key_events":[],"mouse_events":[9548,11817,13161,15871,20775,23416,26433,28944,31245,32791,35777,37819,40518,42020,42779,44377],"straightlining":0.38461538461538464,"zigzagging":0.4166666666666667,"honeypot":0,"survey":"bisbas","trial_type":"survey-template","trial_index":3,"time_elapsed":164404,"internal_node_id":"0.0-3.0","task_version":"prescreen-v0.3","browser_interactions":0,"infrequency":0},{"responses":{"Q01":"3","Q02":"3","Q03":"2"},"rt":18253,"radio_events":[10459,13300,17090],"key_events":[],"mouse_events":[10459,13300,17090,18253],"survey":"map","page":1,"trial_type":"survey-map","trial_index":4,"time_elapsed":182662,"internal_node_id":"0.0-4.0","task_version":"prescreen-v0.3","browser_interactions":0},{"responses":{"Q04":"1","Q05":"2","Q06":"2"},"rt":27814,"radio_events":[24445,25493,26973],"key_events":[],"mouse_events":[24445,25493,26973,27814],"survey":"map","page":2,"trial_type":"survey-map","trial_index":5,"time_elapsed":210483,"internal_node_id":"0.0-5.0","task_version":"prescreen-v0.3","browser_interactions":0},{"responses":{"Q07":"3","Q08":"2","Q09":"4"},"rt":10835,"radio_events":[4949,7798,9891],"key_events":[],"mouse_events":[4949,7798,9891,10835],"survey":"map","page":3,"trial_type":"survey-map","trial_index":6,"time_elapsed":221324,"internal_node_id":"0.0-6.0","task_version":"prescreen-v0.3","browser_interactions":0},{"responses":{"Q10":"1","Q11":"3","Q12":"0","Q13":"2","Q16":"0","Q14":"1","Q15":"2"},"rt":26276,"radio_events":[3618,6282,8624,13034,16210,20993,23753,25418],"key_events":[],"mouse_events":[3618,6282,8624,13034,16210,20541,20993,23753,25418,26276],"survey":"map","page":4,"trial_type":"survey-map","trial_index":7,"time_elapsed":247608,"internal_node_id":"0.0-7.0","task_version":"prescreen-v0.3","browser_interactions":0,"infrequency":0},{"view_history":[{"page_index":0,"viewing_time":1292},{"page_index":1,"viewing_time":4025}],"rt":5317,"trial_type":"instructions","trial_index":8,"time_elapsed":252928,"internal_node_id":"0.0-8.0","task_version":"prescreen-v0.3"},{"responses":{"01":"No","02":"Yes","02_ages_14":"14","02_ages_15":"15","02_ages_16":"16","03":"No","04":"Yes","04_ages_13":"13","04_ages_14":"14","04_ages_15":"15","05":"No","06":"No"},"rt":42771,"item_order":[0,1,2,3,4,5],"radio_events":[5732,7969,24107,27192,28817,29921,33879],"checkbox_events":[13683,15050,15710,35046,35778,36825,37887,41290],"key_events":[],"mouse_events":[0,5732,7969,13683,15050,15710,24107,27192,28817,29921,33879,35046,35778,36825,37887,41290,42770],"honeypot":0,"survey":"mace","page":1,"trial_type":"survey-mace","trial_index":9,"time_elapsed":295712,"internal_node_id":"0.0-9.0","task_version":"prescreen-v0.3","browser_interactions":0},{"responses":{"01":"No","02":"No","03":"Yes","03_ages_7":"7","03_ages_8":"8","03_ages_9":"9","03_ages_10":"10","03_ages_11":"11","03_ages_12":"12","04":"No","05":"Yes","05_ages_7":"7","05_ages_8":"8","05_ages_9":"9","05_ages_10":"10","05_ages_11":"11","05_ages_12":"12","06":"No","07":"No","08":"No"},"rt":37188,"item_order":[0,1,2,3,4,5,6,7],"radio_events":[5098,6127,8155,20885,24860,34066,35232,36448],"checkbox_events":[11582,12263,12951,13723,14559,26752,27346,28121,28641,29906,30412,31351],"key_events":[],"mouse_events":[2763,4695,5098,6127,8155,11582,12263,12951,13723,14559,20885,24860,26752,27346,28121,28641,29325,29906,30412,31351,34066,35232,36448,37188],"honeypot":0,"survey":"mace","page":2,"trial_type":"survey-mace","trial_index":10,"time_elapsed":332913,"internal_node_id":"0.0-10.0","task_version":"prescreen-v0.3","browser_interactions":0},{"responses":{"01":"Yes","01_ages_7":"7","01_ages_8":"8","01_ages_9":"9","01_ages_10":"10","01_ages_11":"11","01_ages_12":"12","01_ages_13":"13","01_ages_14":"14","01_ages_15":"15","01_ages_16":"16","02":"No","03":"No","04":"No"},"rt":32154,"item_order":[0,1,2,3],"radio_events":[11057,28015,29012,30397],"checkbox_events":[15057,15669,16289,16844,17511,18028,18663,19130,19703,20192,20772,24634],"key_events":[],"mouse_events":[11057,15057,15669,16289,16844,17511,18028,18663,19130,19703,20192,20772,24634,28015,29012,30397,32154],"honeypot":0,"survey":"mace","page":3,"trial_type":"survey-mace","trial_index":11,"time_elapsed":365077,"internal_node_id":"0.0-11.0","task_version":"prescreen-v0.3","browser_interactions":0},{"responses":{"01":"No","02":"No"},"rt":5454,"item_order":[0,1],"radio_events":[3331,4717],"checkbox_events":[],"key_events":[],"mouse_events":[3331,4717,5454],"honeypot":0,"survey":"mace","page":4,"trial_type":"survey-mace","trial_index":12,"time_elapsed":370536,"internal_node_id":"0.0-12.0","task_version":"prescreen-v0.3","browser_interactions":0},{"responses":{"01":"No","02":"No","03":"No","04":"No","05":"No"},"rt":15301,"item_order":[0,1,2,3,4],"radio_events":[6702,8893,11081,13351,14517],"checkbox_events":[],"key_events":[],"mouse_events":[6702,8893,11081,13351,14517,15301],"honeypot":0,"survey":"mace","page":5,"trial_type":"survey-mace","trial_index":13,"time_elapsed":385846,"internal_node_id":"0.0-13.0","task_version":"prescreen-v0.3","browser_interactions":0},{"responses":{"01":"Yes","01_ages_9":"9","01_ages_10":"10","01_ages_11":"11","01_ages_12":"12","01_ages_13":"13","02":"Yes","02_ages_9":"9","02_ages_10":"10","02_ages_11":"11","02_ages_12":"12","02_ages_13":"13","02_ages_14":"14","02_ages_15":"15","03":"Yes","03_ages_13":"13","03_ages_14":"14","03_ages_15":"15","04":"Yes","04_ages_14":"14","04_ages_15":"15","04_ages_16":"16","05":"No"},"rt":48146,"item_order":[0,1,2,3,4],"radio_events":[5342,19746,28388,37733,47394],"checkbox_events":[7812,8431,9116,10386,11080,15288,17140,21059,21654,22362,22796,23408,24504,25035,30233,31069,31585,32292,33251,34449,34980,40344,41158,44065],"key_events":[],"mouse_events":[5342,7812,8431,9116,9719,10386,11080,15288,17140,19746,21059,21654,22362,22796,23408,23916,24504,25035,28388,30233,31069,31585,32292,33251,33974,34449,34980,37733,40344,41158,44065,47394,48145],"honeypot":0,"survey":"mace","page":6,"trial_type":"survey-mace","trial_index":14,"time_elapsed":434000,"internal_node_id":"0.0-14.0","task_version":"prescreen-v0.3","browser_interactions":0},{"responses":{"01":"No","02":"No","03":"No","04":"No","05":"No","06":"Yes","06_ages_18":"18","07":"Yes","07_ages_18":"18"},"rt":35560,"item_order":[0,1,2,3,4,5,6],"radio_events":[3040,4160,5512,6558,7812,9156,10168,25790,29867],"checkbox_events":[28285,31691],"key_events":[],"mouse_events":[3040,4160,5512,6558,7812,9156,10168,25790,28285,29867,31691,35560],"honeypot":0,"survey":"mace","page":7,"trial_type":"survey-mace","trial_index":15,"time_elapsed":469570,"internal_node_id":"0.0-15.0","task_version":"prescreen-v0.3","browser_interactions":0},{"responses":{"01":"No","02":"No","03":"Yes","03_ages_8":"8","03_ages_9":"9","03_ages_10":"10","03_ages_11":"11","03_ages_12":"12","03_ages_13":"13","03_ages_14":"14","03_ages_15":"15","03_ages_16":"16","03_ages_17":"17","03_ages_18":"18","04":"No"},"rt":25738,"item_order":[0,1,2,3],"radio_events":[6372,8897,10764,24308],"checkbox_events":[13409,13991,14368,14948,15334,16285,16746,17589,18538,19656,20203,20702,21413],"key_events":[],"mouse_events":[6372,8897,10764,13409,13991,14368,14948,15334,15923,16285,16746,17589,18538,19092,19656,20203,20702,21413,24308,25738],"honeypot":0,"survey":"mace","page":8,"trial_type":"survey-mace","trial_index":16,"time_elapsed":495316,"internal_node_id":"0.0-16.0","task_version":"prescreen-v0.3","browser_interactions":0},{"responses":{"01":"Yes","01_ages_1":"1","01_ages_2":"2","01_ages_3":"3","01_ages_4":"4","01_ages_5":"5","01_ages_6":"6","01_ages_7":"7","01_ages_8":"8","01_ages_9":"9","01_ages_10":"10","01_ages_11":"11","01_ages_12":"12","01_ages_13":"13","01_ages_14":"14","01_ages_15":"15","01_ages_16":"16","01_ages_17":"17","01_ages_18":"18","02":"Yes","02_ages_1":"1","02_ages_2":"2","02_ages_3":"3","02_ages_4":"4","02_ages_5":"5","02_ages_6":"6","02_ages_7":"7","02_ages_8":"8","02_ages_9":"9","02_ages_10":"10","02_ages_11":"11","02_ages_12":"12","02_ages_13":"13","02_ages_14":"14","02_ages_15":"15","02_ages_16":"16","02_ages_17":"17","02_ages_18":"18","03":"Yes","03_ages_1":"1","03_ages_2":"2","03_ages_3":"3","03_ages_4":"4","03_ages_5":"5","03_ages_6":"6","03_ages_7":"7","03_ages_8":"8","03_ages_9":"9","03_ages_10":"10","03_ages_11":"11","03_ages_12":"12","03_ages_13":"13","03_ages_14":"14","03_ages_15":"15","03_ages_16":"16","03_ages_17":"17","03_ages_18":"18","04":"Yes","04_ages_1":"1","04_ages_2":"2","04_ages_3":"3","04_ages_4":"4","04_ages_5":"5","04_ages_6":"6","04_ages_7":"7","04_ages_8":"8","04_ages_9":"9","04_ages_10":"10","04_ages_11":"11","04_ages_12":"12","04_ages_13":"13","04_ages_14":"14","04_ages_15":"15","04_ages_16":"16","04_ages_17":"17","04_ages_18":"18"},"rt":54047,"item_order":[0,1,2,3],"radio_events":[2937,17817,30868,42390],"checkbox_events":[5772,6236,6680,7282,7758,8586,9037,9817,10236,10896,11260,11938,12289,12876,13309,13963,14339,16893,19032,19586,20608,21204,21622,22136,22522,23086,23545,24777,25436,26055,26498,27030,27480,27946,28541,29242,31929,32340,32928,33338,33901,34312,34835,35286,35825,36307,36838,37321,37894,38310,38850,39262,39798,40290,43807,44282,44676,45247,45648,46188,46575,47090,48450,49101,50029,50461,50986,51419,51949,52345,52851,53455],"key_events":[],"mouse_events":[2343,2937,4693,5400,5772,6236,6680,7282,7758,8586,9037,9817,10236,10896,11260,11938,12289,12876,13309,13963,14339,16893,17817,19032,19586,20036,20608,21204,21622,22136,22522,23086,23545,24132,24777,25436,26055,26498,27030,27480,27946,28541,29242,30868,31929,32340,32928,33338,33901,34312,34835,35286,35825,36307,36838,37321,37894,38310,38850,39262,39798,40290,42390,43807,44282,44676,45247,45648,46188,46575,47090,47476,48104,48450,49101,49528,50029,50461,50986,51419,51949,52345,52851,53455,54046],"honeypot":0,"survey":"mace","page":9,"trial_type":"survey-mace","trial_index":17,"time_elapsed":549373,"internal_node_id":"0.0-17.0","task_version":"prescreen-v0.3","browser_interactions":0},{"responses":{"01":"No","02":"No","03":"Yes","03_ages_8":"8","03_ages_9":"9","03_ages_10":"10","04":"Yes","04_ages_7":"7","04_ages_8":"8","04_ages_9":"9","04_ages_10":"10","04_ages_11":"11","05":"Yes","05_ages_9":"9","05_ages_10":"10","05_ages_11":"11","05_ages_12":"12","05_ages_13":"13","05_ages_14":"14","05_ages_15":"15","06":"Yes","06_ages_17":"17","07":"Yes","07_ages_1":"1","07_ages_2":"2","07_ages_3":"3","07_ages_4":"4","07_ages_5":"5","07_ages_6":"6","07_ages_7":"7","07_ages_8":"8","07_ages_9":"9","07_ages_10":"10","07_ages_11":"11","07_ages_12":"12","07_ages_13":"13","07_ages_14":"14","07_ages_15":"15","07_ages_16":"16","07_ages_17":"17","07_ages_18":"18","08":"Yes","08_ages_1":"1","08_ages_2":"2","08_ages_3":"3","08_ages_4":"4","08_ages_5":"5","08_ages_6":"6","08_ages_7":"7","08_ages_8":"8","08_ages_9":"9","08_ages_10":"10","08_ages_11":"11","08_ages_12":"12","08_ages_15":"15","08_ages_16":"16","08_ages_17":"17","08_ages_18":"18"},"rt":78792,"item_order":[0,1,2,3,4,5,6,7],"radio_events":[4279,5818,7508,19290,27225,35111,39691,61200],"checkbox_events":[13108,13584,14017,20741,21617,22259,22717,23336,29430,31153,31615,32021,32598,33011,37218,41832,42274,42626,43208,43612,45412,45798,46392,46794,47335,47697,48221,48581,49107,49604,50274,50667,51325,57563,62641,63035,63372,63977,64878,65267,65650,66618,67034,68347,68956,73391,73948,74419,74932,75556,76442,77119],"key_events":[],"mouse_events":[3090,4279,5818,7508,11974,13108,13584,14017,19290,20741,21617,22259,22717,23336,27225,29430,30693,31153,31615,32021,32598,33011,35111,37218,39691,41832,42274,42626,43208,43612,45058,45412,45798,46392,46794,47335,47697,48221,48581,49107,49604,50274,50667,51325,57563,61200,62641,63035,63372,63977,64371,64878,65267,65650,66618,67034,68347,68956,73391,73948,74419,74932,75556,76442,77119,78792],"honeypot":0,"survey":"mace","page":10,"trial_type":"survey-mace","trial_index":18,"time_elapsed":628178,"internal_node_id":"0.0-18.0","task_version":"prescreen-v0.3","browser_interactions":0,"instructed":0},{"rt":5320,"trial_type":"mental-health-alert","trial_index":19,"time_elapsed":633503,"internal_node_id":"0.0-19.0","task_version":"prescreen-v0.3","interactions":"[{\"event\":\"focus\",\"trial\":0,\"time\":1}]"}]