[{"view_history":[{"page_index":0,"viewing_time":3285},{"page_index":1,"viewing_time":1326},{"page_index":2,"viewing_time":1080},{"page_index":3,"viewing_time":1057}],"rt":6749,"trial_type":"instructions","trial_index":0,"time_elapsed":6751,"internal_node_id":"0.0-0.0","task_version":"prescreen-v0.3"},{"rt":19024,"responses":{"age":"37","gender-categorical":"Female","gender-free-response":"","ethnicity":"Not Hispanic or Latino","race":["White"],"education":"Some college"},"trial_type":"survey-demo","trial_index":1,"time_elapsed":25786,"internal_node_id":"0.0-1.0","task_version":"prescreen-v0.3"},{"responses":{"Q14":"3","Q01":"2","Q10":"3","Q03":"2","Q17":"2","Q12":"1","Q09":"3","Q06":"1","Q19":"2","Q20":"1","Q05":"1","Q08":"3","Q15":"3","Q11":"3","Q16":"3","Q04":"1","Q07":"1","Q13":"2","Q21":"3","Q02":"2","Q18":"2"},"rt":80993,"item_order":[13,0,9,2,16,11,8,5,18,19,4,7,14,10,15,3,6,12,20,1,17],"radio_events":[7310,9289,12044,13811,16026,19955,22226,34692,35805,36998,40936,43557,46081,48327,54179,56946,65023,69805,73079,77253,79675],"key_events":[],"mouse_events":[7310,9289,12044,13811,16026,19955,22226,26805,31428,33734,34692,35805,36998,40936,43557,46081,47539,48327,54179,56946,61572,65023,68724,69805,73079,77253,78490,79675,80992],"straightlining":0.38095238095238093,"zigzagging":0.45,"honeypot":0,"survey":"sns","trial_type":"survey-template","trial_index":2,"time_elapsed":106784,"internal_node_id":"0.0-2.0","task_version":"prescreen-v0.3","browser_interactions":0,"infrequency":0},{"responses":{"Q12":"0","Q01":"2","Q11":"1","Q13":"0","Q05":"2","Q09":"1","Q02":"3","Q04":"3","Q03":"3","Q06":"1","Q08":"1","Q07":"2","Q10":"1"},"rt":80781,"item_order":[11,0,10,12,4,8,1,3,2,5,7,6,9],"radio_events":[45326,47498,51100,52897,56204,58085,60673,62190,67917,69031,71528,73543,77133,79291],"key_events":[],"mouse_events":[45326,47498,51100,52897,56204,58085,60673,62190,65767,66648,67917,69031,71528,73543,77133,79291,80781],"straightlining":0.38461538461538464,"zigzagging":0.4166666666666667,"honeypot":0,"survey":"bisbas","trial_type":"survey-template","trial_index":3,"time_elapsed":187568,"internal_node_id":"0.0-3.0","task_version":"prescreen-v0.3","browser_interactions":2,"infrequency":0},{"responses":{"Q01":"1","Q02":"1","Q03":"1"},"rt":11386,"radio_events":[5186,6705,10181],"key_events":[],"mouse_events":[5186,6705,9619,10181,11386],"survey":"map","page":1,"trial_type":"survey-map","trial_index":4,"time_elapsed":198961,"internal_node_id":"0.0-4.0","task_version":"prescreen-v0.3","browser_interactions":0},{"responses":{"Q04":"2","Q05":"2","Q06":"2"},"rt":8863,"radio_events":[5408,6836,7893],"key_events":[],"mouse_events":[5408,6836,7893,8863],"survey":"map","page":2,"trial_type":"survey-map","trial_index":5,"time_elapsed":207827,"internal_node_id":"0.0-5.0","task_version":"prescreen-v0.3","browser_interactions":0},{"responses":{"Q07":"0","Q08":"2","Q09":"1"},"rt":11909,"radio_events":[3861,4603,5943,8486,10882],"key_events":[],"mouse_events":[3861,4603,5943,8486,10253,10882,11909],"survey":"map","page":3,"trial_type":"survey-map","trial_index":6,"time_elapsed":219741,"internal_node_id":"0.0-6.0","task_version":"prescreen-v0.3","browser_interactions":0},{"responses":{"Q10":"1","Q11":"1","Q12":"1","Q13":"1","Q16":"0","Q14":"2","Q15":"1"},"rt":39159,"radio_events":[4515,6236,26242,28807,31360,35625,38055],"key_events":[],"mouse_events":[4515,5652,6236,23563,25578,26242,28278,28807,30078,31360,35625,38055,39159],"survey":"map","page":4,"trial_type":"survey-map","trial_index":7,"time_elapsed":258905,"internal_node_id":"0.0-7.0","task_version":"prescreen-v0.3","browser_interactions":2,"infrequency":0},{"view_history":[{"page_index":0,"viewing_time":2142},{"page_index":1,"viewing_time":1821}],"rt":3963,"trial_type":"instructions","trial_index":8,"time_elapsed":262872,"internal_node_id":"0.0-8.0","task_version":"prescreen-v0.3"},{"responses":{"01":"Yes","01_ages_8":"8","01_ages_9":"9","01_ages_10":"10","01_ages_11":"11","01_ages_12":"12","01_ages_13":"13","01_ages_14":"14","01_ages_15":"15","01_ages_16":"16","01_ages_17":"17","01_ages_18":"18","02":"Yes","02_ages_8":"8","02_ages_9":"9","02_ages_10":"10","02_ages_11":"11","02_ages_12":"12","02_ages_13":"13","02_ages_14":"14","02_ages_15":"15","02_ages_16":"16","02_ages_17":"17","02_ages_18":"18","03":"Yes","03_ages_8":"8","03_ages_9":"9","03_ages_10":"10","03_ages_11":"11","03_ages_12":"12","03_ages_13":"13","03_ages_14":"14","03_ages_15":"15","03_ages_16":"16","03_ages_17":"17","03_ages_18":"18","04":"No","05":"No","06":"Yes","06_ages_8":"8","06_ages_9":"9","06_ages_10":"10","06_ages_11":"11","06_ages_12":"12","06_ages_13":"13","06_ages_14":"14","06_ages_15":"15","06_ages_16":"16"},"rt":60488,"item_order":[0,1,2,3,4,5],"radio_events":[3699,18910,32759,46139,47396,51255],"checkbox_events":[8988,9740,10415,11405,12182,12734,13266,13747,14600,15348,15850,21249,21913,22871,24772,26088,26638,27348,28360,29486,30420,31105,34007,34672,35246,35841,37360,37991,38587,39579,40151,40850,41448,52660,53405,54180,54653,55340,55848,56645,57624,58659],"key_events":[],"mouse_events":[1,3699,8988,9740,10415,11011,11405,12182,12734,13266,13747,14600,15348,15850,18910,21249,21913,22871,23569,23895,24772,25651,26088,26638,27348,28360,29486,30420,31105,32759,34007,34672,35246,35841,36370,37360,37991,38587,39138,39579,40151,40850,41448,44741,46139,47396,50503,51255,52660,53405,54180,54653,55340,55848,56287,56645,57130,57624,58186,58659,60487],"honeypot":0,"survey":"mace","page":1,"trial_type":"survey-mace","trial_index":9,"time_elapsed":323373,"internal_node_id":"0.0-9.0","task_version":"prescreen-v0.3","browser_interactions":0},{"responses":{"01":"No","02":"No","03":"Yes","03_ages_8":"8","03_ages_9":"9","03_ages_10":"10","03_ages_11":"11","04":"No","05":"Yes","05_ages_8":"8","05_ages_9":"9","05_ages_10":"10","05_ages_11":"11","06":"No","07":"No","08":"No"},"rt":30018,"item_order":[0,1,2,3,4,5,6,7],"radio_events":[5361,6640,8927,16286,19582,26118,27311,29145],"checkbox_events":[10718,11316,12021,12584,21260,22022,22642,23238],"key_events":[],"mouse_events":[5361,6640,7690,8927,10718,11316,12021,12584,16286,19582,21260,22022,22642,23238,26118,27311,28718,29145,30018],"honeypot":0,"survey":"mace","page":2,"trial_type":"survey-mace","trial_index":10,"time_elapsed":353399,"internal_node_id":"0.0-10.0","task_version":"prescreen-v0.3","browser_interactions":0},{"responses":{"01":"No","02":"No","03":"No","04":"No"},"rt":8529,"item_order":[0,1,2,3],"radio_events":[3789,5025,6004,7367],"checkbox_events":[],"key_events":[],"mouse_events":[3789,5025,6004,6905,7367,8529],"honeypot":0,"survey":"mace","page":3,"trial_type":"survey-mace","trial_index":11,"time_elapsed":361936,"internal_node_id":"0.0-11.0","task_version":"prescreen-v0.3","browser_interactions":0},{"responses":{"01":"No","02":"No"},"rt":5773,"item_order":[0,1],"radio_events":[4062,4838],"checkbox_events":[],"key_events":[],"mouse_events":[2384,3219,4062,4838,5773],"honeypot":0,"survey":"mace","page":4,"trial_type":"survey-mace","trial_index":12,"time_elapsed":367714,"internal_node_id":"0.0-12.0","task_version":"prescreen-v0.3","browser_interactions":0},{"responses":{"01":"Yes","01_ages_8":"8","01_ages_9":"9","01_ages_10":"10","01_ages_11":"11","01_ages_12":"12","02":"No","03":"No","04":"Yes","04_ages_8":"8","04_ages_9":"9","04_ages_10":"10","04_ages_11":"11","04_ages_12":"12","04_ages_13":"13","04_ages_14":"14","04_ages_15":"15","04_ages_16":"16","04_ages_17":"17","04_ages_18":"18","05":"Yes","05_ages_8":"8","05_ages_9":"9","05_ages_10":"10","05_ages_11":"11","05_ages_12":"12"},"rt":53176,"item_order":[0,1,2,3,4],"radio_events":[5536,17002,18692,21995,44418],"checkbox_events":[7662,8261,8912,9384,9857,10689,11500,12413,13276,23655,24337,25213,26296,26838,27273,28521,29883,30917,31574,33303,34632,35531,36678,38053,46401,47153,48187,49100,49785],"key_events":[],"mouse_events":[5536,7662,8261,8912,9384,9857,10689,11151,11500,12413,13276,17002,18692,21995,23655,24337,25213,26296,26838,27273,28521,29883,30917,31574,33303,34632,35531,36678,38053,44418,46401,47153,48187,49100,49785,53176],"honeypot":0,"survey":"mace","page":5,"trial_type":"survey-mace","trial_index":13,"time_elapsed":420898,"internal_node_id":"0.0-13.0","task_version":"prescreen-v0.3","browser_interactions":0},{"responses":{"01":"Yes","01_ages_6":"6","01_ages_7":"7","01_ages_8":"8","01_ages_9":"9","01_ages_10":"10","01_ages_11":"11","01_ages_12":"12","01_ages_13":"13","01_ages_14":"14","01_ages_15":"15","01_ages_16":"16","02":"Yes","02_ages_6":"6","02_ages_7":"7","02_ages_8":"8","02_ages_9":"9","02_ages_10":"10","02_ages_11":"11","02_ages_12":"12","02_ages_13":"13","02_ages_14":"14","02_ages_15":"15","02_ages_16":"16","03":"Yes","03_ages_6":"6","03_ages_7":"7","03_ages_8":"8","03_ages_9":"9","03_ages_10":"10","03_ages_11":"11","03_ages_12":"12","03_ages_13":"13","03_ages_14":"14","03_ages_15":"15","03_ages_16":"16","03_ages_17":"17","04":"Yes","04_ages_9":"9","04_ages_10":"10","04_ages_11":"11","04_ages_12":"12","04_ages_13":"13","04_ages_14":"14","04_ages_15":"15","04_ages_16":"16","05":"No"},"rt":61870,"item_order":[0,1,2,3,4],"radio_events":[4565,19163,34470,47757,61100],"checkbox_events":[6186,8290,8807,10002,11015,12454,13240,14464,15297,15940,16805,22273,23861,25592,26234,27526,28237,28854,29317,30150,31061,32736,36337,36832,37339,38115,38816,39779,41190,41661,42683,43527,44100,44606,49691,50411,51838,53742,54193,54866,55350,56352,57635,58793],"key_events":[],"mouse_events":[4565,6186,8290,8807,10002,11015,12454,13240,14050,14464,15297,15940,16805,19163,21677,22273,22970,23861,25592,26234,27526,28237,28854,29317,29697,30150,31061,32736,34470,36337,36832,37339,38115,38816,39250,39779,40178,40669,41190,41661,42177,42683,43133,43527,44100,44606,47757,49691,50411,51838,53742,54193,54866,55350,56352,56846,57184,57635,58139,58793,61100,61869],"honeypot":0,"survey":"mace","page":6,"trial_type":"survey-mace","trial_index":14,"time_elapsed":482776,"internal_node_id":"0.0-14.0","task_version":"prescreen-v0.3","browser_interactions":0},{"responses":{"01":"No","02":"No","03":"No","04":"No","05":"No","06":"No","07":"No"},"rt":13839,"item_order":[0,1,2,3,4,5,6],"radio_events":[3707,4821,5758,9031,9822,11403,13011],"checkbox_events":[],"key_events":[],"mouse_events":[3707,4821,5758,6498,7836,9031,9822,10594,11403,13011,13839],"honeypot":0,"survey":"mace","page":7,"trial_type":"survey-mace","trial_index":15,"time_elapsed":496623,"internal_node_id":"0.0-15.0","task_version":"prescreen-v0.3","browser_interactions":0},{"responses":{"01":"No","02":"No","03":"Yes","03_ages_8":"8","03_ages_9":"9","03_ages_10":"10","03_ages_11":"11","03_ages_12":"12","03_ages_13":"13","03_ages_14":"14","03_ages_15":"15","03_ages_16":"16","03_ages_17":"17","03_ages_18":"18","04":"No"},"rt":30353,"item_order":[0,1,2,3],"radio_events":[7784,15231,17538,29591],"checkbox_events":[19779,20375,20947,21700,22152,22626,23727,24153,25606,26077,26955],"key_events":[],"mouse_events":[7784,15231,17538,19779,20375,20947,21700,22152,22626,23298,23727,24153,25145,25606,26077,26955,28001,29591,30353],"honeypot":0,"survey":"mace","page":8,"trial_type":"survey-mace","trial_index":16,"time_elapsed":526982,"internal_node_id":"0.0-16.0","task_version":"prescreen-v0.3","browser_interactions":0},{"responses":{"01":"No","02":"No","03":"No","04":"Yes","04_ages_1":"1","04_ages_2":"2","04_ages_3":"3","04_ages_4":"4","04_ages_5":"5","04_ages_6":"6","04_ages_7":"7","04_ages_8":"8","04_ages_9":"9","04_ages_10":"10","04_ages_11":"11"},"rt":27786,"item_order":[0,1,2,3],"radio_events":[3496,6946,8723,13539],"checkbox_events":[16160,18546,19030,19884,20626,21325,22078,22708,23578,24182,24971],"key_events":[],"mouse_events":[3496,5316,6946,8723,13539,16160,18546,19030,19884,20626,21325,22078,22708,23578,24182,24971,27786],"honeypot":0,"survey":"mace","page":9,"trial_type":"survey-mace","trial_index":17,"time_elapsed":554773,"internal_node_id":"0.0-17.0","task_version":"prescreen-v0.3","browser_interactions":0},{"responses":{"01":"No","02":"No","03":"Yes","03_ages_8":"8","03_ages_9":"9","03_ages_10":"10","03_ages_11":"11","03_ages_12":"12","03_ages_13":"13","03_ages_14":"14","03_ages_15":"15","03_ages_16":"16","03_ages_17":"17","03_ages_18":"18","04":"Yes","04_ages_10":"10","04_ages_11":"11","04_ages_12":"12","04_ages_13":"13","04_ages_14":"14","04_ages_15":"15","04_ages_16":"16","04_ages_17":"17","04_ages_18":"18","05":"No","06":"Yes","06_ages_17":"17","07":"No","08":"No"},"rt":42407,"item_order":[0,1,2,3,4,5,6,7],"radio_events":[3767,4758,7211,19237,33379,35280,40277,41525],"checkbox_events":[8706,9913,10679,11306,12026,12546,13571,14084,14927,16492,17213,21082,23141,24229,24830,25302,25993,26685,27453,28081,28716,29610,37147],"key_events":[],"mouse_events":[3047,3767,4758,7211,8706,9427,9913,10679,11306,12026,12546,13571,14084,14927,16492,17213,19237,21082,21758,23141,24229,24830,25302,25993,26685,27453,28081,28716,29610,33379,34572,35280,37147,40277,41525,42406],"honeypot":0,"survey":"mace","page":10,"trial_type":"survey-mace","trial_index":18,"time_elapsed":597187,"internal_node_id":"0.0-18.0","task_version":"prescreen-v0.3","browser_interactions":0,"instructed":0},{"rt":4393,"trial_type":"mental-health-alert","trial_index":19,"time_elapsed":601583,"internal_node_id":"0.0-19.0","task_version":"prescreen-v0.3","interactions":"[{\"event\":\"focus\",\"trial\":0,\"time\":1},{\"event\":\"blur\",\"trial\":3,\"time\":109846},{\"event\":\"focus\",\"trial\":3,\"time\":145823},{\"event\":\"blur\",\"trial\":7,\"time\":227854},{\"event\":\"focus\",\"trial\":7,\"time\":237373}]"}]