[{"view_history":[{"page_index":0,"viewing_time":2896.100000023842},{"page_index":1,"viewing_time":3464.099999964237},{"page_index":2,"viewing_time":4957.800000011921},{"page_index":3,"viewing_time":1036.800000011921}],"rt":12356.400000035763,"trial_type":"instructions","trial_index":0,"time_elapsed":12366,"internal_node_id":"0.0-0.0","task_version":"prescreen-v0.3"},{"rt":16439.69999998808,"responses":{"age":"22","gender-categorical":"Female","gender-free-response":"","ethnicity":"Hispanic or Latino","race":["Rather not say"],"education":"Associate degree"},"trial_type":"survey-demo","trial_index":1,"time_elapsed":28819,"internal_node_id":"0.0-1.0","task_version":"prescreen-v0.3"},{"responses":{"Q18":"1","Q21":"3","Q12":"0","Q03":"0","Q02":"0","Q16":"1","Q06":"0","Q20":"0","Q04":"0","Q09":"0","Q11":"0","Q19":"0","Q05":"1","Q15":"2","Q01":"0","Q10":"0","Q14":"0","Q17":"0","Q13":"0","Q07":"0","Q08":"0"},"rt":90942.89999997616,"item_order":[17,20,11,2,1,15,5,19,3,8,10,18,4,14,0,9,13,16,12,6,7],"radio_events":[7724.5,12263.699999988079,15930.299999952316,18134.799999952316,19338,22996.5,24474.799999952316,30438.099999964237,31654.5,34917.59999996424,37290.799999952316,38471.799999952316,42534.19999998808,46759.299999952316,58180,69897.79999995232,73925.89999997616,74477.19999998808,77150.29999995232,80766.5,82739,87068.29999995232,89709.59999996424],"key_events":[],"mouse_events":[6481.5,7724.5,12263.699999988079,15930.299999952316,17218,18134.799999952316,18694.19999998808,19338,22996.5,24474.799999952316,29805.099999964237,30438.099999964237,31654.5,34917.59999996424,37290.799999952316,38471.799999952316,42534.19999998808,46759.299999952316,58180,69122.5,69897.79999995232,72850.19999998808,73925.89999997616,74477.19999998808,77150.29999995232,80766.5,82739,86309.69999998808,87068.29999995232,89709.59999996424,90937.29999995232],"straightlining":0.7619047619047619,"zigzagging":0.25,"honeypot":0,"survey":"sns","trial_type":"survey-template","trial_index":2,"time_elapsed":119780,"internal_node_id":"0.0-2.0","task_version":"prescreen-v0.3","browser_interactions":0,"infrequency":0},{"responses":{"Q06":"2","Q07":"3","Q01":"3","Q04":"3","Q10":"2","Q02":"3","Q05":"3","Q09":"1","Q12":"1","Q03":"3","Q13":"0","Q11":"2","Q08":"2"},"rt":66761.69999998808,"item_order":[5,6,0,3,9,1,4,8,11,2,12,10,7],"radio_events":[4481.100000023842,7856.900000035763,9359.300000011921,11814.600000023842,18866.100000023842,21248.100000023842,24164.100000023842,27750.19999998808,28492.600000023842,37534.69999998808,51072.80000001192,52389.5,55022.19999998808,60518.40000003576,63559.69999998808,65426.10000002384],"key_events":[],"mouse_events":[4481.100000023842,6354.5,7856.900000035763,9359.300000011921,11814.600000023842,18866.100000023842,21248.100000023842,23679.400000035763,24164.100000023842,27750.19999998808,28492.600000023842,37534.69999998808,50331.30000001192,51072.80000001192,52389.5,55022.19999998808,60518.40000003576,62146.10000002384,62882,63559.69999998808,65426.10000002384,66758.5],"straightlining":0.46153846153846156,"zigzagging":0.3333333333333333,"honeypot":0,"survey":"bisbas","trial_type":"survey-template","trial_index":3,"time_elapsed":186554,"internal_node_id":"0.0-3.0","task_version":"prescreen-v0.3","browser_interactions":0,"infrequency":0},{"responses":{"Q01":"2","Q02":"3","Q03":"3"},"rt":30036.30000001192,"radio_events":[14004.700000047684,15775.600000023842,20559.30000001192,29179.100000023842],"key_events":[],"mouse_events":[14004.700000047684,15775.600000023842,20559.30000001192,21647.5,29179.100000023842,30034.80000001192],"survey":"map","page":1,"trial_type":"survey-map","trial_index":4,"time_elapsed":216603,"internal_node_id":"0.0-4.0","task_version":"prescreen-v0.3","browser_interactions":0},{"responses":{"Q04":"2","Q05":"2","Q06":"1"},"rt":27523.5,"radio_events":[9435.699999988079,10089.199999988079,13327.899999976158,25571.600000023842],"key_events":[],"mouse_events":[1273.199999988079,9435.699999988079,10089.199999988079,12570.899999976158,13327.899999976158,14652.399999976158,20144.69999998808,22995,25008.80000001192,25571.600000023842,27522],"survey":"map","page":2,"trial_type":"survey-map","trial_index":5,"time_elapsed":244137,"internal_node_id":"0.0-5.0","task_version":"prescreen-v0.3","browser_interactions":0},{"responses":{"Q07":"1","Q08":"2","Q09":"3"},"rt":18701.69999998808,"radio_events":[7318.699999988079,12511.400000035763,17858.100000023842],"key_events":[],"mouse_events":[1001.9000000357628,6502.900000035763,7318.699999988079,11149.199999988079,12511.400000035763,13235.400000035763,14650.400000035763,16033,17300.400000035763,17858.100000023842,18700.400000035763],"survey":"map","page":3,"trial_type":"survey-map","trial_index":6,"time_elapsed":262850,"internal_node_id":"0.0-6.0","task_version":"prescreen-v0.3","browser_interactions":0},{"responses":{"Q10":"3","Q11":"4","Q12":"2","Q13":"2","Q16":"0","Q14":"2","Q15":"1"},"rt":54823.59999996424,"radio_events":[4606.399999976158,8111.299999952316,12674.599999964237,18947.799999952316,32384.099999964237,34936.09999996424,39662.39999997616,51571.39999997616,52809.39999997616],"key_events":[],"mouse_events":[4606.399999976158,7546,8111.299999952316,12077.099999964237,12674.599999964237,18415.69999998808,18947.799999952316,31216.799999952316,31908.099999964237,32384.099999964237,34936.09999996424,39662.39999997616,51571.39999997616,52322.09999996424,52809.39999997616,54820.19999998808],"survey":"map","page":4,"trial_type":"survey-map","trial_index":7,"time_elapsed":317686,"internal_node_id":"0.0-7.0","task_version":"prescreen-v0.3","browser_interactions":0,"infrequency":0},{"view_history":[{"page_index":0,"viewing_time":2749.100000023842},{"page_index":1,"viewing_time":4006.899999976158}],"rt":6756.5,"trial_type":"instructions","trial_index":8,"time_elapsed":324451,"internal_node_id":"0.0-8.0","task_version":"prescreen-v0.3"},{"responses":{"01":"No","02":"No","03":"No","04":"No","05":"No","06":"No"},"rt":25156.600000023842,"item_order":[0,1,2,3,4,5],"radio_events":[10789.5,14465.600000023842,18905.19999998808,20118.80000001192,21442.900000035763,24138.19999998808],"checkbox_events":[],"key_events":[],"mouse_events":[0.40000003576278687,8930.800000011921,10789.5,14465.600000023842,18905.19999998808,20118.80000001192,21442.900000035763,23323.100000023842,24138.19999998808,24574.400000035763,25149],"honeypot":0,"survey":"mace","page":1,"trial_type":"survey-mace","trial_index":9,"time_elapsed":349621,"internal_node_id":"0.0-9.0","task_version":"prescreen-v0.3","browser_interactions":0},{"responses":{"01":"No","02":"No","03":"No","04":"No","05":"No","06":"No","07":"No","08":"No"},"rt":14307.100000023842,"item_order":[0,1,2,3,4,5,6,7],"radio_events":[2175.600000023842,5567.200000047684,6318.5,7249.900000035763,9137.200000047684,11127.900000035763,12359.5,13401.200000047684],"checkbox_events":[],"key_events":[],"mouse_events":[2175.600000023842,3314.100000023842,5122,5567.200000047684,6318.5,7249.900000035763,9137.200000047684,11127.900000035763,12359.5,13401.200000047684,14297.900000035763],"honeypot":0,"survey":"mace","page":2,"trial_type":"survey-mace","trial_index":10,"time_elapsed":363942,"internal_node_id":"0.0-10.0","task_version":"prescreen-v0.3","browser_interactions":0},{"responses":{"01":"No","02":"No","03":"No","04":"No"},"rt":8685.5,"item_order":[0,1,2,3],"radio_events":[3218.699999988079,4737.199999988079,5891.399999976158,8057.899999976158],"checkbox_events":[],"key_events":[],"mouse_events":[3218.699999988079,4737.199999988079,5891.399999976158,7467.099999964237,8057.899999976158,8680.099999964237],"honeypot":0,"survey":"mace","page":3,"trial_type":"survey-mace","trial_index":11,"time_elapsed":372637,"internal_node_id":"0.0-11.0","task_version":"prescreen-v0.3","browser_interactions":0},{"responses":{"01":"No","02":"No"},"rt":3715.100000023842,"item_order":[0,1],"radio_events":[1623.8999999761581,3059.699999988079],"checkbox_events":[],"key_events":[],"mouse_events":[1623.8999999761581,3059.699999988079,3712.899999976158],"honeypot":0,"survey":"mace","page":4,"trial_type":"survey-mace","trial_index":12,"time_elapsed":376362,"internal_node_id":"0.0-12.0","task_version":"prescreen-v0.3","browser_interactions":0},{"responses":{"01":"No","02":"No","03":"No","04":"No","05":"No"},"rt":15992.899999976158,"item_order":[0,1,2,3,4],"radio_events":[4937.299999952316,6724.399999976158,8357.399999976158,9153.199999988079,10291.699999988079],"checkbox_events":[],"key_events":[],"mouse_events":[4937.299999952316,6724.399999976158,8357.399999976158,9153.199999988079,10291.699999988079,10937.5,14427,15986.399999976158],"honeypot":0,"survey":"mace","page":5,"trial_type":"survey-mace","trial_index":13,"time_elapsed":392367,"internal_node_id":"0.0-13.0","task_version":"prescreen-v0.3","browser_interactions":0},{"responses":{"01":"No","02":"Yes","02_ages_14":"14","02_ages_15":"15","02_ages_16":"16","03":"Yes","03_ages_15":"15","03_ages_16":"16","03_ages_17":"17","04":"No","05":"No"},"rt":41955,"item_order":[0,1,2,3,4],"radio_events":[6217.599999964237,7865.399999976158,28621.299999952316,38410.799999952316,41067.799999952316],"checkbox_events":[16775.399999976158,17284.69999998808,17799.299999952316,33282.09999996424,33646,34114.19999998808],"key_events":[],"mouse_events":[6217.599999964237,7865.399999976158,16775.399999976158,17284.69999998808,17799.299999952316,23343.399999976158,28006.899999976158,28621.299999952316,33282.09999996424,33646,34114.19999998808,35761.299999952316,38410.799999952316,41067.799999952316,41948.39999997616],"honeypot":0,"survey":"mace","page":6,"trial_type":"survey-mace","trial_index":14,"time_elapsed":434333,"internal_node_id":"0.0-14.0","task_version":"prescreen-v0.3","browser_interactions":0},{"responses":{"01":"No","02":"No","03":"No","04":"No","05":"No","06":"No","07":"No"},"rt":11217.599999964237,"item_order":[0,1,2,3,4,5,6],"radio_events":[4602.399999976158,5530.699999988079,6322.800000011921,7606.5,8980.800000011921,9726.699999988079,10506.399999976158],"checkbox_events":[],"key_events":[],"mouse_events":[4602.399999976158,5530.699999988079,6322.800000011921,6887,7606.5,8980.800000011921,9726.699999988079,10506.399999976158,11209.599999964237],"honeypot":0,"survey":"mace","page":7,"trial_type":"survey-mace","trial_index":15,"time_elapsed":445563,"internal_node_id":"0.0-15.0","task_version":"prescreen-v0.3","browser_interactions":0},{"responses":{"01":"No","02":"No","03":"Yes","03_ages_11":"11","03_ages_12":"12","03_ages_13":"13","03_ages_14":"14","03_ages_15":"15","03_ages_16":"16","03_ages_17":"17","03_ages_18":"18","04":"No"},"rt":32919.30000001192,"item_order":[0,1,2,3],"radio_events":[4971.800000011921,5946.400000035763,12916.600000023842,31839.30000001192],"checkbox_events":[24189,24690.100000023842,25095.100000023842,25545.600000023842,25959.30000001192,26821.600000023842,27606.600000023842,28106.400000035763],"key_events":[],"mouse_events":[4971.800000011921,5946.400000035763,12916.600000023842,24189,24690.100000023842,25095.100000023842,25545.600000023842,25959.30000001192,26441.80000001192,26821.600000023842,27258.400000035763,27606.600000023842,28106.400000035763,29108.30000001192,31839.30000001192,32347.100000023842,32914.10000002384],"honeypot":0,"survey":"mace","page":8,"trial_type":"survey-mace","trial_index":16,"time_elapsed":478492,"internal_node_id":"0.0-16.0","task_version":"prescreen-v0.3","browser_interactions":0},{"responses":{"01":"Yes","01_ages_1":"1","01_ages_2":"2","01_ages_3":"3","01_ages_4":"4","01_ages_5":"5","01_ages_6":"6","01_ages_7":"7","01_ages_8":"8","01_ages_9":"9","01_ages_10":"10","01_ages_11":"11","01_ages_12":"12","01_ages_13":"13","01_ages_14":"14","01_ages_15":"15","01_ages_16":"16","01_ages_17":"17","01_ages_18":"18","02":"Yes","02_ages_1":"1","02_ages_2":"2","02_ages_3":"3","02_ages_4":"4","02_ages_5":"5","02_ages_6":"6","02_ages_7":"7","02_ages_8":"8","02_ages_9":"9","02_ages_10":"10","02_ages_11":"11","02_ages_12":"12","02_ages_13":"13","02_ages_14":"14","02_ages_15":"15","02_ages_16":"16","02_ages_17":"17","02_ages_18":"18","03":"Yes","03_ages_1":"1","03_ages_2":"2","03_ages_3":"3","03_ages_4":"4","03_ages_5":"5","03_ages_6":"6","03_ages_7":"7","03_ages_8":"8","03_ages_9":"9","03_ages_10":"10","03_ages_11":"11","03_ages_12":"12","03_ages_13":"13","03_ages_14":"14","03_ages_15":"15","03_ages_16":"16","03_ages_17":"17","03_ages_18":"18","04":"Yes","04_ages_1":"1","04_ages_2":"2","04_ages_3":"3","04_ages_4":"4","04_ages_5":"5","04_ages_6":"6","04_ages_7":"7","04_ages_8":"8","04_ages_9":"9","04_ages_10":"10","04_ages_11":"11","04_ages_12":"12","04_ages_13":"13","04_ages_14":"14","04_ages_15":"15","04_ages_16":"16","04_ages_17":"17","04_ages_18":"18"},"rt":54016.80000001192,"item_order":[0,1,2,3],"radio_events":[3076.300000011921,15861.5,29104.80000001192,42024.10000002384],"checkbox_events":[6169.5,6605.600000023842,7105.699999988079,7582.899999976158,8003.199999988079,8414.699999988079,8843.100000023842,9263,9715.800000011921,10137.399999976158,10547.899999976158,10999.399999976158,11504.699999988079,12137.899999976158,12550.600000023842,12995,13391.699999988079,13800.800000011921,16766.80000001192,17159.600000023842,17576.19999998808,17978.399999976158,18426.5,19710.5,20185.399999976158,20703.19999998808,21763.100000023842,22167.19999998808,22671.899999976158,23059.100000023842,23497.600000023842,23899.600000023842,24998.30000001192,25402.69999998808,25938.399999976158,26526.600000023842,30628.5,31565,31960.5,32525.69999998808,32933.10000002384,33374,33801.5,34221.69999998808,34617.69999998808,35028.69999998808,35449.80000001192,35873.5,36306.39999997616,36750.30000001192,37195,38474.30000001192,38850.30000001192,39353.39999997616,43204.89999997616,44313,44697.30000001192,45310.80000001192,45732.30000001192,46199.69999998808,46709.10000002384,47145.30000001192,47638.60000002384,48085.69999998808,48575.10000002384,49527.39999997616,49965,50723.30000001192,51151.60000002384,51572.10000002384,52024.19999998808,52897.60000002384],"key_events":[],"mouse_events":[1040.199999988079,3076.300000011921,6169.5,6605.600000023842,7105.699999988079,7582.899999976158,8003.199999988079,8414.699999988079,8843.100000023842,9263,9715.800000011921,10137.399999976158,10547.899999976158,10999.399999976158,11504.699999988079,12137.899999976158,12550.600000023842,12995,13391.699999988079,13800.800000011921,14949.399999976158,15183.899999976158,15861.5,16766.80000001192,17159.600000023842,17576.19999998808,17978.399999976158,18426.5,18834.19999998808,19710.5,20185.399999976158,20703.19999998808,21191.30000001192,21763.100000023842,22167.19999998808,22671.899999976158,23059.100000023842,23497.600000023842,23899.600000023842,24360.30000001192,24998.30000001192,25402.69999998808,25938.399999976158,26526.600000023842,29104.80000001192,30628.5,31062.69999998808,31565,31960.5,32525.69999998808,32933.10000002384,33374,33801.5,34221.69999998808,34617.69999998808,35028.69999998808,35449.80000001192,35873.5,36306.39999997616,36750.30000001192,37195,38474.30000001192,38850.30000001192,39353.39999997616,42024.10000002384,43204.89999997616,43615.69999998808,44313,44697.30000001192,45310.80000001192,45732.30000001192,46199.69999998808,46709.10000002384,47145.30000001192,47638.60000002384,48085.69999998808,48575.10000002384,49075.60000002384,49527.39999997616,49965,50723.30000001192,51151.60000002384,51572.10000002384,52024.19999998808,52533.80000001192,52897.60000002384,54011.60000002384],"honeypot":0,"survey":"mace","page":9,"trial_type":"survey-mace","trial_index":17,"time_elapsed":532521,"internal_node_id":"0.0-17.0","task_version":"prescreen-v0.3","browser_interactions":0},{"responses":{"01":"No","02":"No","03":"Yes","03_ages_17":"17","03_ages_18":"18","04":"No","05":"Yes","05_ages_16":"16","05_ages_17":"17","05_ages_18":"18","06":"Yes","06_ages_17":"17","07":"Yes","07_ages_1":"1","07_ages_2":"2","07_ages_3":"3","07_ages_4":"4","07_ages_5":"5","07_ages_6":"6","07_ages_7":"7","07_ages_8":"8","07_ages_9":"9","07_ages_10":"10","07_ages_11":"11","07_ages_12":"12","07_ages_13":"13","07_ages_14":"14","07_ages_15":"15","08":"Yes","08_ages_1":"1","08_ages_2":"2","08_ages_3":"3","08_ages_4":"4","08_ages_5":"5","08_ages_6":"6","08_ages_7":"7","08_ages_8":"8","08_ages_9":"9","08_ages_10":"10","08_ages_11":"11","08_ages_12":"12","08_ages_13":"13","08_ages_14":"14","08_ages_15":"15"},"rt":58406.40000003576,"item_order":[0,1,2,3,4,5,6,7],"radio_events":[3981.7000000476837,4717,6130.300000011921,9780.600000023842,15639.5,17947.400000035763,24361.200000047684,30417.400000035763,46669.10000002384],"checkbox_events":[12042.900000035763,12454.5,19581.600000023842,20144.200000047684,20679.700000047684,25746.100000023842,31291.100000023842,32445.900000035763,32873.60000002384,33341.700000047684,34313.40000003576,35144.60000002384,36215.80000001192,36653.700000047684,37121.80000001192,37590.90000003576,38076.700000047684,38594.5,39044.200000047684,39541.200000047684,40008.30000001192,48413.700000047684,48922.200000047684,49998.90000003576,50870.5,51751.700000047684,52136.80000001192,52574.80000001192,53002.700000047684,53530.60000002384,54221.700000047684,54697.90000003576,55215.40000003576,55683.60000002384,56179.80000001192,56692.90000003576],"key_events":[],"mouse_events":[3981.7000000476837,4717,6130.300000011921,9780.600000023842,11586.700000047684,12042.900000035763,12454.5,14288.600000023842,15639.5,17947.400000035763,18815,19581.600000023842,20144.200000047684,20679.700000047684,21121.600000023842,24361.200000047684,25746.100000023842,26242.30000001192,30417.400000035763,31291.100000023842,31737.200000047684,32445.900000035763,32873.60000002384,33341.700000047684,33810.60000002384,34313.40000003576,34771.60000002384,35144.60000002384,35588.200000047684,36215.80000001192,36653.700000047684,37121.80000001192,37590.90000003576,38076.700000047684,38594.5,39044.200000047684,39541.200000047684,40008.30000001192,40960,44819.5,46669.10000002384,48413.700000047684,48922.200000047684,49351.40000003576,49998.90000003576,50409.40000003576,50870.5,51358.700000047684,51751.700000047684,52136.80000001192,52574.80000001192,53002.700000047684,53530.60000002384,54221.700000047684,54697.90000003576,55215.40000003576,55683.60000002384,56179.80000001192,56692.90000003576,57323.700000047684,58397.700000047684],"honeypot":0,"survey":"mace","page":10,"trial_type":"survey-mace","trial_index":18,"time_elapsed":590940,"internal_node_id":"0.0-18.0","task_version":"prescreen-v0.3","browser_interactions":0,"instructed":0},{"rt":5966.900000035763,"trial_type":"mental-health-alert","trial_index":19,"time_elapsed":596914,"internal_node_id":"0.0-19.0","task_version":"prescreen-v0.3","interactions":"[]"}]