[{"view_history":[{"page_index":0,"viewing_time":6271.300000071526},{"page_index":1,"viewing_time":6241.399999976158},{"page_index":2,"viewing_time":4526.199999928474},{"page_index":3,"viewing_time":12488.800000071526}],"rt":29528.399999976158,"trial_type":"instructions","trial_index":0,"time_elapsed":29545,"internal_node_id":"0.0-0.0","task_version":"prescreen-v0.3"},{"rt":23624,"responses":{"age":"37","gender-categorical":"Rather not say","gender-free-response":"","ethnicity":"Not Hispanic or Latino","race":["White"],"education":"High school","siblings":"2"},"trial_type":"survey-demo","trial_index":1,"time_elapsed":53173,"internal_node_id":"0.0-1.0","task_version":"prescreen-v0.3"},{"responses":{"Q06":"2","Q08":"0","Q15":"0","Q20":"1","Q04":"2","Q17":"2","Q09":"3","Q11":"2","Q19":"2","Q21":"3","Q16":"2","Q14":"1","Q03":"2","Q02":"1","Q10":"1","Q05":"1","Q07":"1","Q18":"2","Q13":"2","Q01":"2","Q12":"1"},"rt":166383.10000002384,"item_order":[5,7,14,19,3,16,8,10,18,20,15,13,2,1,9,4,6,17,12,0,11],"radio_events":[17688.600000023842,24241.600000023842,34019.60000002384,42489.39999997616,48322.799999952316,54510.299999952316,59443.700000047684,65690.29999995232,73764.60000002384,76427.60000002384,85770.20000004768,108996.5,115204.89999997616,120082.5,125959.60000002384,141530.70000004768,146937.5,153720.5,157465,160779.29999995232,165429.60000002384],"key_events":[],"mouse_events":[17688.600000023842,23310.700000047684,24241.600000023842,31694.600000023842,32440.399999976158,33206.700000047684,34019.60000002384,42489.39999997616,48322.799999952316,54510.299999952316,59443.700000047684,65690.29999995232,73764.60000002384,76427.60000002384,85770.20000004768,108996.5,115204.89999997616,119299.70000004768,120082.5,125959.60000002384,136507,141530.70000004768,146937.5,153720.5,157465,160779.29999995232,165429.60000002384,166381.60000002384],"straightlining":0.47619047619047616,"zigzagging":0.55,"honeypot":0,"survey":"sns","trial_type":"survey-template","trial_index":2,"time_elapsed":219563,"internal_node_id":"0.0-2.0","task_version":"prescreen-v0.3","browser_interactions":0,"infrequency":0},{"responses":{"Q09":"2","Q11":"2","Q10":"2","Q02":"1","Q06":"3","Q07":"2","Q08":"3","Q03":"2","Q05":"2","Q04":"3","Q01":"2","Q13":"0","Q12":"1"},"rt":77585.60000002384,"item_order":[8,10,9,1,5,6,7,2,4,3,0,12,11],"radio_events":[9122.600000023842,16531.299999952316,20095.5,24459.399999976158,33919,35474.799999952316,39097.10000002384,53402.89999997616,54173.89999997616,60315.10000002384,63782.799999952316,69432.70000004768,76361.70000004768],"key_events":[],"mouse_events":[9122.600000023842,15707.700000047684,16531.299999952316,20095.5,24459.399999976158,33013.10000002384,33919,35474.799999952316,39097.10000002384,46013.299999952316,53402.89999997616,54173.89999997616,60315.10000002384,63782.799999952316,68178.5,69432.70000004768,76361.70000004768,77584.60000002384],"straightlining":0.5384615384615384,"zigzagging":0.5833333333333334,"honeypot":0,"survey":"bisbas","trial_type":"survey-template","trial_index":3,"time_elapsed":297153,"internal_node_id":"0.0-3.0","task_version":"prescreen-v0.3","browser_interactions":0,"infrequency":0},{"responses":{"Q01":"3","Q02":"4","Q03":"3"},"rt":26258.399999976158,"radio_events":[9118.300000071526,13143.5,18955,24840.600000023842],"key_events":[],"mouse_events":[9118.300000071526,13143.5,18955,24200.300000071526,24840.600000023842,25694.700000047684,26257.899999976158],"survey":"map","page":1,"trial_type":"survey-map","trial_index":4,"time_elapsed":323417,"internal_node_id":"0.0-4.0","task_version":"prescreen-v0.3","browser_interactions":0},{"responses":{"Q04":"4","Q05":"2","Q06":"3"},"rt":18053.899999976158,"radio_events":[8322.399999976158,12105.700000047684,16574.200000047684],"key_events":[],"mouse_events":[8322.399999976158,12105.700000047684,16574.200000047684,17347.399999976158,18053.399999976158],"survey":"map","page":2,"trial_type":"survey-map","trial_index":5,"time_elapsed":341475,"internal_node_id":"0.0-5.0","task_version":"prescreen-v0.3","browser_interactions":0},{"responses":{"Q07":"2","Q08":"4","Q09":"2"},"rt":21062.5,"radio_events":[6261.200000047684,13789.899999976158,20313.600000023842],"key_events":[],"mouse_events":[6261.200000047684,13789.899999976158,20313.600000023842,21062.100000023842],"survey":"map","page":3,"trial_type":"survey-map","trial_index":6,"time_elapsed":362541,"internal_node_id":"0.0-6.0","task_version":"prescreen-v0.3","browser_interactions":0},{"responses":{"Q10":"1","Q11":"2","Q12":"2","Q13":"1","Q16":"0","Q14":"2","Q15":"1"},"rt":39815.5,"radio_events":[6753.899999976158,12672.199999928474,19102.399999976158,23891.399999976158,27838.100000023842,34086,38881.60000002384],"key_events":[],"mouse_events":[5862.399999976158,6753.899999976158,12672.199999928474,19102.399999976158,23891.399999976158,27838.100000023842,34086,38215.89999997616,38881.60000002384,39814.799999952316],"survey":"map","page":4,"trial_type":"survey-map","trial_index":7,"time_elapsed":402361,"internal_node_id":"0.0-7.0","task_version":"prescreen-v0.3","browser_interactions":0,"infrequency":0},{"view_history":[{"page_index":0,"viewing_time":2936.5},{"page_index":1,"viewing_time":7061.100000023842}],"rt":9998.399999976158,"trial_type":"instructions","trial_index":8,"time_elapsed":412363,"internal_node_id":"0.0-8.0","task_version":"prescreen-v0.3"},{"responses":{"01":"Yes","01_ages_7":"7","01_ages_8":"8","01_ages_9":"9","01_ages_10":"10","01_ages_11":"11","01_ages_12":"12","01_ages_13":"13","01_ages_14":"14","01_ages_15":"15","01_ages_16":"16","01_ages_17":"17","01_ages_18":"18","02":"Yes","02_ages_7":"7","02_ages_8":"8","02_ages_9":"9","02_ages_10":"10","02_ages_11":"11","02_ages_12":"12","02_ages_13":"13","02_ages_14":"14","02_ages_15":"15","02_ages_16":"16","02_ages_17":"17","02_ages_18":"18","03":"Yes","03_ages_5":"5","03_ages_6":"6","03_ages_7":"7","03_ages_8":"8","03_ages_9":"9","03_ages_10":"10","03_ages_11":"11","03_ages_12":"12","03_ages_13":"13","03_ages_14":"14","03_ages_15":"15","03_ages_16":"16","04":"Yes","04_ages_5":"5","04_ages_6":"6","04_ages_7":"7","04_ages_8":"8","04_ages_9":"9","04_ages_10":"10","04_ages_11":"11","04_ages_12":"12","04_ages_13":"13","04_ages_14":"14","04_ages_15":"15","04_ages_16":"16","04_ages_17":"17","04_ages_18":"18","05":"No","06":"No"},"rt":112090.5,"item_order":[0,1,2,3,4,5],"radio_events":[11836.299999952316,40996.5,58099.799999952316,77902.60000002384,107114.10000002384,110049.10000002384],"checkbox_events":[19374.100000023842,20054.600000023842,20816.100000023842,21912.699999928474,22530.199999928474,24717.699999928474,25388.5,26075.799999952316,27417.399999976158,28191.699999928474,29447.899999976158,31702.299999952316,42389.199999928474,45119.199999928474,46513.10000002384,47173.299999952316,47788.299999952316,48848.10000002384,49554.5,50293.10000002384,51404.60000002384,52158.699999928474,52808.799999952316,53428.10000002384,61749.60000002384,62420.39999997616,63431.89999997616,64393.199999928474,65997.29999995232,66811.60000002384,68506.29999995232,69161.19999992847,70068,73382.79999995232,74018.29999995232,74746,79131.5,80546.39999997616,81739.79999995232,82781.39999997616,83394,84050.60000002384,84671.29999995232,85305.60000002384,85947.10000002384,86525.19999992847,88227.60000002384,90223.5,91044.10000002384,91699],"key_events":[],"mouse_events":[0.10000002384185791,11836.299999952316,19374.100000023842,20054.600000023842,20816.100000023842,21330.600000023842,21912.699999928474,22530.199999928474,23098.299999952316,23950.799999952316,24717.699999928474,25388.5,26075.799999952316,26823.399999976158,27417.399999976158,28191.699999928474,28832.100000023842,29447.899999976158,30571.600000023842,31702.299999952316,32542.799999952316,40996.5,42389.199999928474,45119.199999928474,46513.10000002384,47173.299999952316,47788.299999952316,48848.10000002384,49554.5,50293.10000002384,51404.60000002384,52158.699999928474,52808.799999952316,53428.10000002384,58099.799999952316,60878,61749.60000002384,62420.39999997616,63431.89999997616,64393.199999928474,65997.29999995232,66811.60000002384,68506.29999995232,69161.19999992847,70068,73382.79999995232,74018.29999995232,74746,77902.60000002384,79131.5,79802.19999992847,80546.39999997616,81151.29999995232,81739.79999995232,82781.39999997616,83394,84050.60000002384,84671.29999995232,85305.60000002384,85947.10000002384,86525.19999992847,87114.69999992847,87633.69999992847,88227.60000002384,88888.29999995232,89573,90223.5,91044.10000002384,91699,107114.10000002384,110049.10000002384,112088.69999992847],"honeypot":0,"survey":"mace","page":1,"trial_type":"survey-mace","trial_index":9,"time_elapsed":524458,"internal_node_id":"0.0-9.0","task_version":"prescreen-v0.3","browser_interactions":0},{"responses":{"01":"Yes","01_ages_6":"6","01_ages_7":"7","01_ages_8":"8","01_ages_9":"9","02":"No","03":"Yes","03_ages_5":"5","03_ages_6":"6","03_ages_7":"7","03_ages_8":"8","03_ages_9":"9","03_ages_10":"10","04":"Yes","04_ages_5":"5","04_ages_6":"6","04_ages_7":"7","04_ages_8":"8","04_ages_9":"9","04_ages_10":"10","05":"Yes","05_ages_5":"5","05_ages_6":"6","05_ages_7":"7","05_ages_8":"8","05_ages_9":"9","05_ages_10":"10","06":"Yes","06_ages_6":"6","06_ages_7":"7","06_ages_8":"8","06_ages_9":"9","06_ages_10":"10","06_ages_11":"11","06_ages_12":"12","06_ages_13":"13","07":"Yes","07_ages_6":"6","07_ages_7":"7","07_ages_8":"8","07_ages_9":"9","07_ages_10":"10","08":"Yes","08_ages_6":"6","08_ages_7":"7","08_ages_8":"8","08_ages_9":"9","08_ages_10":"10","08_ages_11":"11"},"rt":95518.30000007153,"item_order":[0,1,2,3,4,5,6,7],"radio_events":[7519.200000047684,19651.300000071526,21767.200000047684,36298.300000071526,49172.90000009537,57892.200000047684,69902.80000007153,86922.60000002384],"checkbox_events":[10424.600000023842,11495.5,12174.300000071526,13502.200000047684,24627.600000023842,25402,26016.5,26592,27618.400000095367,28390.400000095367,37478,39405.60000002384,40021.300000071526,41707.200000047684,43060.40000009537,43664.300000071526,50423.60000002384,51064.90000009537,51612.40000009537,52166.700000047684,52833.300000071526,53811.200000047684,61581.60000002384,62119.40000009537,62663.10000002384,63220.700000047684,63779.90000009537,64338.300000071526,65722,66469.10000002384,73221.30000007153,73937.70000004768,75112.30000007153,75664.5,77108.30000007153,88136.60000002384,88914.5,89643,90221.5,90867.80000007153,92311.70000004768],"key_events":[],"mouse_events":[7519.200000047684,10424.600000023842,11033.400000095367,11495.5,12174.300000071526,12914.900000095367,13502.200000047684,19651.300000071526,21767.200000047684,23719.200000047684,24627.600000023842,25402,26016.5,26592,27119.5,27618.400000095367,28390.400000095367,36298.300000071526,37478,38261.5,39067.700000047684,39405.60000002384,40021.300000071526,40590.10000002384,41200.10000002384,41707.200000047684,43060.40000009537,43664.300000071526,48357.90000009537,49172.90000009537,50423.60000002384,51064.90000009537,51612.40000009537,52166.700000047684,52833.300000071526,53811.200000047684,57892.200000047684,61581.60000002384,62119.40000009537,62663.10000002384,63220.700000047684,63779.90000009537,64338.300000071526,65014.60000002384,65722,66469.10000002384,69902.80000007153,71300.40000009537,73221.30000007153,73937.70000004768,74532.60000002384,75112.30000007153,75664.5,76201.90000009537,77108.30000007153,86922.60000002384,88136.60000002384,88914.5,89643,90221.5,90867.80000007153,91584.40000009537,92311.70000004768,95515.80000007153],"honeypot":0,"survey":"mace","page":2,"trial_type":"survey-mace","trial_index":10,"time_elapsed":619982,"internal_node_id":"0.0-10.0","task_version":"prescreen-v0.3","browser_interactions":0},{"responses":{"01":"Yes","01_ages_5":"5","01_ages_6":"6","01_ages_7":"7","01_ages_8":"8","01_ages_9":"9","01_ages_10":"10","02":"No","03":"No","04":"No"},"rt":28643.799999952316,"item_order":[0,1,2,3],"radio_events":[4409.700000047684,17680.200000047684,25628.299999952316,27929.700000047684],"checkbox_events":[6090,6669.100000023842,8238.799999952316,9420.899999976158,9942.600000023842,10557.399999976158],"key_events":[],"mouse_events":[4409.700000047684,6090,6669.100000023842,7232.600000023842,8238.799999952316,8744.700000047684,9420.899999976158,9942.600000023842,10557.399999976158,17680.200000047684,25628.299999952316,27929.700000047684,28642.399999976158],"honeypot":0,"survey":"mace","page":3,"trial_type":"survey-mace","trial_index":11,"time_elapsed":648630,"internal_node_id":"0.0-11.0","task_version":"prescreen-v0.3","browser_interactions":0},{"responses":{"01":"Yes","01_ages_7":"7","01_ages_8":"8","01_ages_9":"9","01_ages_10":"10","01_ages_11":"11","01_ages_12":"12","02":"Yes","02_ages_7":"7","02_ages_8":"8","02_ages_9":"9","02_ages_10":"10","02_ages_11":"11","02_ages_12":"12"},"rt":38615.299999952316,"item_order":[0,1],"radio_events":[14378.199999928474,29315.5],"checkbox_events":[16410.799999952316,17769,18270.100000023842,19886.299999952316,20698.799999952316,21395.899999976158,31108.199999928474,31901.899999976158,32481.5,34510.39999997616,35136,35890.39999997616],"key_events":[],"mouse_events":[14378.199999928474,16410.799999952316,17342.699999928474,17769,18270.100000023842,18802.399999976158,19429.699999928474,19886.299999952316,20698.799999952316,21395.899999976158,29315.5,31108.199999928474,31901.899999976158,32481.5,33076.199999928474,34510.39999997616,35136,35890.39999997616,38614.5],"honeypot":0,"survey":"mace","page":4,"trial_type":"survey-mace","trial_index":12,"time_elapsed":687250,"internal_node_id":"0.0-12.0","task_version":"prescreen-v0.3","browser_interactions":0},{"responses":{"01":"Yes","01_ages_7":"7","01_ages_8":"8","01_ages_9":"9","01_ages_10":"10","02":"Yes","02_ages_7":"7","02_ages_8":"8","02_ages_9":"9","02_ages_10":"10","03":"No","04":"Yes","04_ages_7":"7","04_ages_8":"8","04_ages_9":"9","04_ages_10":"10","04_ages_11":"11","04_ages_12":"12","04_ages_13":"13","04_ages_14":"14","04_ages_15":"15","04_ages_16":"16","04_ages_17":"17","04_ages_18":"18","05":"Yes","05_ages_7":"7","05_ages_8":"8","05_ages_9":"9","05_ages_10":"10","05_ages_11":"11"},"rt":69730.10000002384,"item_order":[0,1,2,3,4],"radio_events":[9852.600000023842,26222.899999976158,35488.39999997616,41526.39999997616,60710.5],"checkbox_events":[12224.5,12951.299999952316,13478.899999976158,14980.5,27617.100000023842,28779.799999952316,29830.700000047684,30522.700000047684,44857.200000047684,45394.200000047684,45927.200000047684,47039.299999952316,47666.10000002384,48281.200000047684,48982.700000047684,49535.60000002384,50121.89999997616,50736.60000002384,51279.799999952316,52556.5,62027.299999952316,63903.10000002384,64497.5,66149.39999997616,67307.29999995232],"key_events":[],"mouse_events":[9852.600000023842,12224.5,12951.299999952316,13478.899999976158,14125.100000023842,14980.5,26222.899999976158,27617.100000023842,28267.5,28779.799999952316,29402.399999976158,29830.700000047684,30522.700000047684,35488.39999997616,41526.39999997616,44857.200000047684,45394.200000047684,45927.200000047684,46517.200000047684,47039.299999952316,47666.10000002384,48281.200000047684,48982.700000047684,49535.60000002384,50121.89999997616,50736.60000002384,51279.799999952316,52005.5,52556.5,60710.5,62027.299999952316,62739.299999952316,63273,63903.10000002384,64497.5,65276.799999952316,66149.39999997616,67307.29999995232,69728.39999997616],"honeypot":0,"survey":"mace","page":5,"trial_type":"survey-mace","trial_index":13,"time_elapsed":756984,"internal_node_id":"0.0-13.0","task_version":"prescreen-v0.3","browser_interactions":0},{"responses":{"01":"Yes","01_ages_7":"7","01_ages_8":"8","01_ages_9":"9","01_ages_10":"10","01_ages_11":"11","01_ages_12":"12","01_ages_13":"13","01_ages_14":"14","01_ages_15":"15","01_ages_16":"16","01_ages_17":"17","01_ages_18":"18","02":"Yes","02_ages_7":"7","02_ages_8":"8","02_ages_9":"9","02_ages_10":"10","02_ages_11":"11","02_ages_12":"12","02_ages_13":"13","02_ages_14":"14","02_ages_15":"15","02_ages_16":"16","02_ages_17":"17","02_ages_18":"18","03":"No","04":"No","05":"No"},"rt":47639.700000047684,"item_order":[0,1,2,3,4],"radio_events":[10174.600000023842,25607.899999976158,39633.60000002384,43547.39999997616,46479.300000071526],"checkbox_events":[12275.300000071526,14043.600000023842,14742.700000047684,15346.700000047684,15849.600000023842,16393.5,17000.100000023842,17998.200000047684,18611.100000023842,19848.600000023842,21472.800000071526,22237.100000023842,26849.300000071526,27901.600000023842,28563.700000047684,29213.300000071526,29799.300000071526,30486.5,31034.899999976158,31742.100000023842,32374.200000047684,33000.200000047684,33535.10000002384,34135.89999997616],"key_events":[],"mouse_events":[10174.600000023842,12275.300000071526,12844.300000071526,13393.5,14043.600000023842,14742.700000047684,15346.700000047684,15849.600000023842,16393.5,17000.100000023842,17539.200000047684,17998.200000047684,18611.100000023842,19392.700000047684,19848.600000023842,20532.700000047684,21020.399999976158,21472.800000071526,22237.100000023842,25146.5,25607.899999976158,26849.300000071526,27357.200000047684,27901.600000023842,28563.700000047684,29213.300000071526,29799.300000071526,30486.5,31034.899999976158,31742.100000023842,32374.200000047684,33000.200000047684,33535.10000002384,34135.89999997616,38239.10000002384,39633.60000002384,43547.39999997616,46479.300000071526,47638.300000071526],"honeypot":0,"survey":"mace","page":6,"trial_type":"survey-mace","trial_index":14,"time_elapsed":804628,"internal_node_id":"0.0-14.0","task_version":"prescreen-v0.3","browser_interactions":0},{"responses":{"01":"No","02":"No","03":"No","04":"No","05":"No","06":"Yes","06_ages_7":"7","06_ages_8":"8","06_ages_9":"9","06_ages_10":"10","06_ages_11":"11","06_ages_12":"12","07":"Yes","07_ages_7":"7","07_ages_8":"8","07_ages_9":"9","07_ages_10":"10","07_ages_11":"11","07_ages_12":"12"},"rt":36758.5,"item_order":[0,1,2,3,4,5,6],"radio_events":[6635.399999976158,12258.700000047684,15478.899999976158,16385.899999976158,19294.800000071526,20299.899999976158,29088.5],"checkbox_events":[21607.800000071526,23458.200000047684,24677.100000023842,25246,25782.300000071526,26527.200000047684,30544.600000023842,31140.399999976158,31764.399999976158,32318.399999976158,32883,33704.10000002384],"key_events":[],"mouse_events":[6635.399999976158,12258.700000047684,14197.800000071526,14931.800000071526,15478.899999976158,16385.899999976158,19294.800000071526,20299.899999976158,21607.800000071526,22202.800000071526,22716.899999976158,23458.200000047684,24137.100000023842,24677.100000023842,25246,25782.300000071526,26527.200000047684,29088.5,30544.600000023842,31140.399999976158,31764.399999976158,32318.399999976158,32883,33704.10000002384,36756.200000047684],"honeypot":0,"survey":"mace","page":7,"trial_type":"survey-mace","trial_index":15,"time_elapsed":841391,"internal_node_id":"0.0-15.0","task_version":"prescreen-v0.3","browser_interactions":0},{"responses":{"01":"Yes","01_ages_7":"7","01_ages_8":"8","01_ages_9":"9","01_ages_10":"10","01_ages_11":"11","01_ages_12":"12","01_ages_13":"13","01_ages_14":"14","01_ages_15":"15","01_ages_16":"16","01_ages_17":"17","01_ages_18":"18","02":"Yes","02_ages_7":"7","02_ages_8":"8","02_ages_9":"9","02_ages_10":"10","02_ages_11":"11","02_ages_13":"13","02_ages_14":"14","02_ages_15":"15","02_ages_16":"16","03":"Yes","03_ages_6":"6","03_ages_7":"7","03_ages_8":"8","03_ages_9":"9","03_ages_10":"10","03_ages_11":"11","03_ages_12":"12","03_ages_13":"13","03_ages_14":"14","03_ages_15":"15","03_ages_16":"16","03_ages_17":"17","03_ages_18":"18","04":"No"},"rt":68657.5,"item_order":[0,1,2,3],"radio_events":[17242.600000023842,31169.400000095367,52247.5,68047.70000004768],"checkbox_events":[19410.800000071526,19964,20486.800000071526,21069.700000047684,21643.5,22153,22701.5,23297.900000095367,23893.400000095367,24440.600000023842,25091.400000095367,25680.700000047684,32757.800000071526,33270.700000047684,34419.200000047684,35805,36698.10000002384,39646.5,40215.40000009537,40774.5,41355.300000071526,55098.90000009537,55711.10000002384,56298.10000002384,56879.60000002384,57424.300000071526,58458.800000071526,60123.300000071526,60686.60000002384,61380.200000047684,62014.90000009537,62657.200000047684,63348.200000047684,64447.5],"key_events":[],"mouse_events":[17242.600000023842,19410.800000071526,19964,20486.800000071526,21069.700000047684,21643.5,22153,22701.5,23297.900000095367,23893.400000095367,24440.600000023842,25091.400000095367,25680.700000047684,31169.400000095367,32757.800000071526,33270.700000047684,33793.200000047684,34419.200000047684,35074.700000047684,35805,36698.10000002384,39646.5,40215.40000009537,40774.5,41355.300000071526,52247.5,53286.90000009537,53849.60000002384,54592.300000071526,55098.90000009537,55711.10000002384,56298.10000002384,56879.60000002384,57424.300000071526,57996.5,58458.800000071526,59175.800000071526,59716.10000002384,60123.300000071526,60686.60000002384,61380.200000047684,62014.90000009537,62657.200000047684,63348.200000047684,64088.10000002384,64447.5,68047.70000004768,68656.20000004768],"honeypot":0,"survey":"mace","page":8,"trial_type":"survey-mace","trial_index":16,"time_elapsed":910053,"internal_node_id":"0.0-16.0","task_version":"prescreen-v0.3","browser_interactions":0},{"responses":{"01":"Yes","01_ages_6":"6","01_ages_7":"7","01_ages_8":"8","01_ages_9":"9","02":"Yes","02_ages_6":"6","02_ages_7":"7","02_ages_8":"8","02_ages_9":"9","03":"No","04":"Yes","04_ages_6":"6","04_ages_7":"7","04_ages_8":"8","04_ages_9":"9","04_ages_10":"10","04_ages_11":"11","04_ages_12":"12","04_ages_13":"13","04_ages_14":"14","04_ages_15":"15","04_ages_16":"16","04_ages_17":"17","04_ages_18":"18"},"rt":45080.89999997616,"item_order":[0,1,2,3],"radio_events":[13094.399999976158,17824.200000047684,26539.799999952316,32078.600000023842],"checkbox_events":[14467.5,15035.299999952316,15568.5,16096.299999952316,19063.100000023842,20359.799999952316,21395.100000023842,22008.299999952316,33863.200000047684,35674.700000047684,36183.299999952316,36727.10000002384,37317.299999952316,38522.200000047684,39240,39921.299999952316,41145.39999997616,42444.799999952316,43077.60000002384,43665.299999952316,44307.60000002384],"key_events":[],"mouse_events":[13094.399999976158,14467.5,15035.299999952316,15568.5,16096.299999952316,17824.200000047684,19063.100000023842,19500.100000023842,20359.799999952316,20861.700000047684,21395.100000023842,22008.299999952316,26539.799999952316,32078.600000023842,33863.200000047684,34374.700000047684,34962,35674.700000047684,36183.299999952316,36727.10000002384,37317.299999952316,37976.60000002384,38522.200000047684,39240,39921.299999952316,40549.39999997616,41145.39999997616,41743,42444.799999952316,43077.60000002384,43665.299999952316,44307.60000002384,45079.60000002384],"honeypot":0,"survey":"mace","page":9,"trial_type":"survey-mace","trial_index":17,"time_elapsed":955139,"internal_node_id":"0.0-17.0","task_version":"prescreen-v0.3","browser_interactions":0},{"responses":{"01":"No","02":"No","03":"Yes","03_ages_9":"9","03_ages_10":"10","03_ages_11":"11","03_ages_12":"12","03_ages_13":"13","03_ages_14":"14","03_ages_15":"15","03_ages_16":"16","04":"Yes","04_ages_10":"10","04_ages_11":"11","04_ages_12":"12","04_ages_13":"13","04_ages_14":"14","04_ages_15":"15","04_ages_16":"16","05":"Yes","05_ages_7":"7","05_ages_8":"8","05_ages_9":"9","05_ages_10":"10","05_ages_11":"11","05_ages_12":"12","05_ages_13":"13","05_ages_14":"14","06":"Yes","06_ages_17":"17","07":"No","08":"No"},"rt":58537.300000071526,"item_order":[0,1,2,3,4,5,6,7],"radio_events":[3751.7000000476837,5183.300000071526,10577.600000023842,24471,37632,49087.60000002384,55790.800000071526,57132.10000002384],"checkbox_events":[17812.800000071526,18398,19072.800000071526,19771.800000071526,20398.899999976158,21073.899999976158,21652.899999976158,22338.899999976158,27413.100000023842,27997.899999976158,28544.399999976158,29132.600000023842,31658.600000023842,32309.600000023842,32904.200000047684,39286.800000071526,40571.700000047684,41201.700000047684,41940.5,42519.89999997616,43811.10000002384,45224.39999997616,45761.60000002384,51528.800000071526],"key_events":[],"mouse_events":[3751.7000000476837,5183.300000071526,10577.600000023842,17812.800000071526,18398,19072.800000071526,19771.800000071526,20398.899999976158,21073.899999976158,21652.899999976158,22338.899999976158,24471,27413.100000023842,27997.899999976158,28544.399999976158,29132.600000023842,29694.100000023842,30214.600000023842,30901.100000023842,31658.600000023842,32309.600000023842,32904.200000047684,37632,39286.800000071526,39768.10000002384,40571.700000047684,41201.700000047684,41940.5,42519.89999997616,43057.300000071526,43811.10000002384,45224.39999997616,45761.60000002384,49087.60000002384,51528.800000071526,55790.800000071526,57132.10000002384,57823.700000047684,58534.200000047684],"honeypot":0,"survey":"mace","page":10,"trial_type":"survey-mace","trial_index":18,"time_elapsed":1013681,"internal_node_id":"0.0-18.0","task_version":"prescreen-v0.3","browser_interactions":0,"instructed":0},{"rt":11236,"trial_type":"mental-health-alert","trial_index":19,"time_elapsed":1024921,"internal_node_id":"0.0-19.0","task_version":"prescreen-v0.3","interactions":"[]"}]