[{"view_history":[{"page_index":0,"viewing_time":2107.5},{"page_index":1,"viewing_time":3239.7000000011176},{"page_index":2,"viewing_time":3552.4000000003725},{"page_index":3,"viewing_time":1087.2999999988824}],"rt":9987.300000000745,"trial_type":"instructions","trial_index":0,"time_elapsed":10011,"internal_node_id":"0.0-0.0","task_version":"prescreen-v0.3"},{"rt":10836.700000001118,"responses":{"age":"23","gender-categorical":"Female","gender-free-response":"","ethnicity":"Not Hispanic or Latino","race":["White"],"education":"Bachelor degree"},"trial_type":"survey-demo","trial_index":1,"time_elapsed":20852,"internal_node_id":"0.0-1.0","task_version":"prescreen-v0.3"},{"responses":{"Q14":"2","Q03":"1","Q18":"1","Q02":"1","Q11":"1","Q13":"3","Q16":"2","Q07":"0","Q06":"0","Q17":"0","Q04":"1","Q20":"2","Q08":"2","Q09":"0","Q19":"1","Q21":"3","Q01":"1","Q12":"2","Q15":"2","Q10":"0","Q05":"1"},"rt":160653.5,"item_order":[13,2,17,1,10,12,15,6,5,16,3,19,7,8,18,20,0,11,14,9,4],"radio_events":[12045,17427.599999999627,25235.799999998882,28699.699999999255,32403.699999999255,61492.199999999255,65060,70555.69999999925,74236.09999999963,77019.90000000037,78899.90000000037,82819.59999999963,84667.79999999888,89556.19999999925,96852.09999999963,101284.5,119475.79999999888,125948.79999999888,151619.90000000037,154411.90000000037,159844.09999999963],"key_events":[],"mouse_events":[12045,16564.900000000373,17427.599999999627,25235.799999998882,28699.699999999255,32403.699999999255,61492.199999999255,65060,70555.69999999925,74236.09999999963,77019.90000000037,78899.90000000037,82819.59999999963,84667.79999999888,88932.09999999963,89556.19999999925,96852.09999999963,101284.5,119475.79999999888,125948.79999999888,151619.90000000037,154411.90000000037,159467.90000000037,159844.09999999963,160651.79999999888],"straightlining":0.38095238095238093,"zigzagging":0.35,"honeypot":0,"survey":"sns","trial_type":"survey-template","trial_index":2,"time_elapsed":181510,"internal_node_id":"0.0-2.0","task_version":"prescreen-v0.3","browser_interactions":0,"infrequency":0},{"responses":{"Q05":"2","Q03":"3","Q11":"2","Q13":"0","Q02":"2","Q01":"3","Q10":"2","Q04":"3","Q09":"1","Q08":"2","Q07":"3","Q12":"1","Q06":"2"},"rt":48747.60000000149,"item_order":[4,2,10,12,1,0,9,3,8,7,6,11,5],"radio_events":[2578.7000000011176,10778.800000000745,14858.900000000373,16691.400000000373,22418.700000001118,25554.700000001118,26546.700000001118,32403.700000001118,35179,38219,41531.20000000112,43450.800000000745,47290.70000000112],"key_events":[],"mouse_events":[2578.7000000011176,10778.800000000745,14858.900000000373,16691.400000000373,22418.700000001118,25554.700000001118,26546.700000001118,32403.700000001118,35179,38219,40899,41531.20000000112,43450.800000000745,47290.70000000112,48746.90000000037],"straightlining":0.46153846153846156,"zigzagging":0.6666666666666666,"honeypot":0,"survey":"bisbas","trial_type":"survey-template","trial_index":3,"time_elapsed":230260,"internal_node_id":"0.0-3.0","task_version":"prescreen-v0.3","browser_interactions":0,"infrequency":0},{"responses":{"Q01":"4","Q02":"2","Q03":"4"},"rt":61028.89999999851,"radio_events":[8076.299999998882,28292.199999999255,31868.799999998882,32956.59999999963,54708,59836.699999999255,60612.09999999963],"key_events":[],"mouse_events":[8076.299999998882,28292.199999999255,31868.799999998882,32956.59999999963,54708,59132.29999999888,59836.699999999255,60612.09999999963,61028],"survey":"map","page":1,"trial_type":"survey-map","trial_index":4,"time_elapsed":291292,"internal_node_id":"0.0-4.0","task_version":"prescreen-v0.3","browser_interactions":0},{"responses":{"Q04":"2","Q05":"2","Q06":"2"},"rt":12445.900000000373,"radio_events":[4413.300000000745,7502.300000000745,9941.700000001118,11558],"key_events":[],"mouse_events":[4053.5999999996275,4413.300000000745,7502.300000000745,9941.700000001118,11558,12445.300000000745],"survey":"map","page":2,"trial_type":"survey-map","trial_index":5,"time_elapsed":303739,"internal_node_id":"0.0-5.0","task_version":"prescreen-v0.3","browser_interactions":0},{"responses":{"Q07":"3","Q08":"4","Q09":"4"},"rt":24590.699999999255,"radio_events":[6294,13742.299999998882,14326,14886.199999999255],"key_events":[],"mouse_events":[6294,13742.299999998882,14326,14886.199999999255,24590.199999999255],"survey":"map","page":3,"trial_type":"survey-map","trial_index":6,"time_elapsed":328331,"internal_node_id":"0.0-6.0","task_version":"prescreen-v0.3","browser_interactions":0},{"responses":{"Q10":"3","Q11":"3","Q12":"1","Q13":"4","Q16":"0","Q14":"2","Q15":"3"},"rt":38502.90000000037,"radio_events":[5973.800000000745,10669.900000000373,15925.800000000745,23150.400000000373,29381.800000000745,35238.20000000112,37781.90000000037],"key_events":[],"mouse_events":[5973.800000000745,10669.900000000373,15925.800000000745,23150.400000000373,29381.800000000745,34678.40000000037,35238.20000000112,37781.90000000037,38502.09999999963],"survey":"map","page":4,"trial_type":"survey-map","trial_index":7,"time_elapsed":366837,"internal_node_id":"0.0-7.0","task_version":"prescreen-v0.3","browser_interactions":0,"infrequency":0},{"view_history":[{"page_index":0,"viewing_time":2205.699999999255},{"page_index":1,"viewing_time":2919.10000000149}],"rt":5125.300000000745,"trial_type":"instructions","trial_index":8,"time_elapsed":371963,"internal_node_id":"0.0-8.0","task_version":"prescreen-v0.3"},{"responses":{"01":"No","02":"Yes","02_ages_15":"15","02_ages_16":"16","02_ages_17":"17","02_ages_18":"18","03":"No","04":"No","05":"No","06":"No"},"rt":53831.5,"item_order":[0,1,2,3,4,5],"radio_events":[32252.800000000745,35084.699999999255,47012.90000000037,49709.09999999963,50813,52501.300000000745],"checkbox_events":[40388.5,41044.5,41757.09999999963,43781.09999999963],"key_events":[],"mouse_events":[0.40000000037252903,32252.800000000745,35084.699999999255,39892.90000000037,40388.5,41044.5,41757.09999999963,43268.59999999963,43781.09999999963,46693,47012.90000000037,49709.09999999963,50813,52501.300000000745,53828.800000000745],"honeypot":0,"survey":"mace","page":1,"trial_type":"survey-mace","trial_index":9,"time_elapsed":425799,"internal_node_id":"0.0-9.0","task_version":"prescreen-v0.3","browser_interactions":0},{"responses":{"01":"No","02":"No","03":"Yes","03_ages_3":"3","03_ages_4":"4","03_ages_5":"5","04":"No","05":"No","06":"No","07":"No","08":"No"},"rt":23244.200000001118,"item_order":[0,1,2,3,4,5,6,7],"radio_events":[3321.7000000011176,5985.9000000003725,7586.0999999996275,17386.300000000745,18386,20041.5,21642.599999999627,22633.700000001118],"checkbox_events":[9113.300000000745,9377.300000000745,10057.300000000745],"key_events":[],"mouse_events":[3321.7000000011176,5985.9000000003725,7586.0999999996275,9113.300000000745,9377.300000000745,9681.200000001118,10057.300000000745,17386.300000000745,18386,20041.5,21642.599999999627,22633.700000001118,23241.400000000373],"honeypot":0,"survey":"mace","page":2,"trial_type":"survey-mace","trial_index":10,"time_elapsed":449048,"internal_node_id":"0.0-10.0","task_version":"prescreen-v0.3","browser_interactions":0},{"responses":{"01":"No","02":"No","03":"No","04":"No"},"rt":13819.599999999627,"item_order":[0,1,2,3],"radio_events":[7697.39999999851,9737.5,12169.199999999255,13161.599999999627],"checkbox_events":[],"key_events":[],"mouse_events":[7697.39999999851,9737.5,12169.199999999255,13161.599999999627,13818.299999998882],"honeypot":0,"survey":"mace","page":3,"trial_type":"survey-mace","trial_index":11,"time_elapsed":462870,"internal_node_id":"0.0-11.0","task_version":"prescreen-v0.3","browser_interactions":0},{"responses":{"01":"No","02":"No"},"rt":18483.799999998882,"item_order":[0,1],"radio_events":[10315.599999999627,13027,15371.699999999255],"checkbox_events":[],"key_events":[],"mouse_events":[10315.599999999627,13027,15371.699999999255,18482.89999999851],"honeypot":0,"survey":"mace","page":4,"trial_type":"survey-mace","trial_index":12,"time_elapsed":481356,"internal_node_id":"0.0-12.0","task_version":"prescreen-v0.3","browser_interactions":0},{"responses":{"01":"No","02":"No","03":"No","04":"No","05":"No"},"rt":21654.900000000373,"item_order":[0,1,2,3,4],"radio_events":[11093.300000000745,13989,17036.900000000373,19332.700000001118,21028.700000001118],"checkbox_events":[],"key_events":[],"mouse_events":[11093.300000000745,13989,17036.900000000373,19332.700000001118,21028.700000001118,21653.300000000745],"honeypot":0,"survey":"mace","page":5,"trial_type":"survey-mace","trial_index":13,"time_elapsed":503014,"internal_node_id":"0.0-13.0","task_version":"prescreen-v0.3","browser_interactions":0},{"responses":{"01":"No","02":"Yes","02_ages_11":"11","02_ages_12":"12","02_ages_13":"13","02_ages_14":"14","02_ages_15":"15","02_ages_16":"16","02_ages_17":"17","02_ages_18":"18","03":"Yes","03_ages_18":"18","04":"Yes","04_ages_18":"18","05":"No"},"rt":37205.199999999255,"item_order":[0,1,2,3,4],"radio_events":[8459.800000000745,8939.199999999255,23747.099999999627,28339.199999999255,29995.199999999255,32019],"checkbox_events":[13779.400000000373,14443.199999999255,14843.599999999627,15186.800000000745,15458.800000000745,15747.800000000745,16058.800000000745,16346.900000000373,24626.900000000373,32874.800000000745],"key_events":[],"mouse_events":[8459.800000000745,8939.199999999255,13779.400000000373,14443.199999999255,14843.599999999627,15186.800000000745,15458.800000000745,15747.800000000745,16058.800000000745,16346.900000000373,23747.099999999627,24626.900000000373,28339.199999999255,29995.199999999255,32019,32874.800000000745,37203.59999999963],"honeypot":0,"survey":"mace","page":6,"trial_type":"survey-mace","trial_index":14,"time_elapsed":540222,"internal_node_id":"0.0-14.0","task_version":"prescreen-v0.3","browser_interactions":0},{"responses":{"01":"No","02":"No","03":"No","04":"No","05":"No","06":"No","07":"No"},"rt":14958.5,"item_order":[0,1,2,3,4,5,6],"radio_events":[3379,6187.4000000003725,7083,8259.299999998882,9522.900000000373,10755.599999999627,11979.099999999627],"checkbox_events":[],"key_events":[],"mouse_events":[3379,6187.4000000003725,7083,8259.299999998882,9522.900000000373,10755.599999999627,11979.099999999627,14956],"honeypot":0,"survey":"mace","page":7,"trial_type":"survey-mace","trial_index":15,"time_elapsed":555183,"internal_node_id":"0.0-15.0","task_version":"prescreen-v0.3","browser_interactions":0},{"responses":{"01":"No","02":"No","03":"No","04":"No"},"rt":40396.09999999963,"item_order":[0,1,2,3],"radio_events":[8418,36154.09999999963,38506,39714],"checkbox_events":[],"key_events":[],"mouse_events":[8418,36154.09999999963,38506,39714,40394.699999999255],"honeypot":0,"survey":"mace","page":8,"trial_type":"survey-mace","trial_index":16,"time_elapsed":595582,"internal_node_id":"0.0-16.0","task_version":"prescreen-v0.3","browser_interactions":2},{"responses":{"01":"Yes","01_ages_1":"1","01_ages_2":"2","01_ages_3":"3","01_ages_4":"4","01_ages_5":"5","01_ages_6":"6","01_ages_7":"7","01_ages_8":"8","01_ages_9":"9","01_ages_10":"10","01_ages_11":"11","01_ages_12":"12","01_ages_13":"13","01_ages_14":"14","01_ages_15":"15","01_ages_16":"16","01_ages_17":"17","01_ages_18":"18","02":"Yes","02_ages_1":"1","02_ages_2":"2","02_ages_3":"3","02_ages_4":"4","02_ages_5":"5","02_ages_6":"6","02_ages_7":"7","02_ages_8":"8","02_ages_9":"9","02_ages_10":"10","02_ages_11":"11","02_ages_12":"12","02_ages_13":"13","02_ages_14":"14","02_ages_15":"15","02_ages_16":"16","02_ages_17":"17","02_ages_18":"18","03":"Yes","03_ages_1":"1","03_ages_2":"2","03_ages_3":"3","03_ages_4":"4","03_ages_5":"5","03_ages_6":"6","03_ages_7":"7","03_ages_8":"8","03_ages_9":"9","03_ages_10":"10","03_ages_11":"11","03_ages_12":"12","03_ages_13":"13","03_ages_14":"14","03_ages_15":"15","03_ages_16":"16","03_ages_17":"17","03_ages_18":"18","04":"Yes","04_ages_1":"1","04_ages_2":"2","04_ages_3":"3","04_ages_4":"4","04_ages_5":"5","04_ages_6":"6","04_ages_7":"7","04_ages_8":"8","04_ages_9":"9","04_ages_10":"10","04_ages_11":"11","04_ages_12":"12","04_ages_13":"13","04_ages_14":"14","04_ages_15":"15","04_ages_16":"16","04_ages_17":"17","04_ages_18":"18"},"rt":49660.70000000112,"item_order":[0,1,2,3],"radio_events":[3907.300000000745,14899.200000001118,27251.200000001118,38275.70000000112],"checkbox_events":[5683.5,6019.200000001118,6523.700000001118,7379.10000000149,7627.300000000745,7923.10000000149,8211.60000000149,8523.10000000149,8827,9124.200000001118,9443.200000001118,10315,10779.200000001118,11083.900000000373,11403,11715.60000000149,12283.10000000149,12931.300000000745,15627.200000001118,15979,16291.5,16611,16963,17563,18139.10000000149,18923,19219.5,20051,20419.200000001118,20867.10000000149,21618.900000000373,22419.200000001118,22699.10000000149,23019,23491.10000000149,23867.10000000149,28156.10000000149,28523,28836.300000000745,29187.5,29547.700000001118,29891.10000000149,30243.10000000149,30827.5,31179.10000000149,31802.900000000373,32803.300000000745,33163.10000000149,33523.60000000149,33882.90000000037,34243,34602.90000000037,34947.10000000149,35603.90000000037,39395.20000000112,39723.20000000112,40403,40771.10000000149,41155.20000000112,41475.10000000149,41859.10000000149,42243.20000000112,42579,42979.20000000112,43307,43867.40000000037,44786.90000000037,45795.60000000149,46643,47259.10000000149,47690.90000000037,48075.10000000149],"key_events":[],"mouse_events":[3907.300000000745,5683.5,6019.200000001118,6523.700000001118,6850.9000000003725,7379.10000000149,7627.300000000745,7923.10000000149,8211.60000000149,8523.10000000149,8827,9124.200000001118,9443.200000001118,9795.200000001118,10315,10779.200000001118,11083.900000000373,11403,11715.60000000149,12011.5,12283.10000000149,12931.300000000745,14899.200000001118,15627.200000001118,15979,16291.5,16611,16963,17563,18139.10000000149,18923,19219.5,19531.5,20051,20419.200000001118,20867.10000000149,21618.900000000373,22419.200000001118,22699.10000000149,23019,23491.10000000149,23867.10000000149,27251.200000001118,28156.10000000149,28523,28836.300000000745,29187.5,29547.700000001118,29891.10000000149,30243.10000000149,30827.5,31179.10000000149,31802.900000000373,32219.800000000745,32803.300000000745,33163.10000000149,33523.60000000149,33882.90000000037,34243,34602.90000000037,34947.10000000149,35603.90000000037,36635.10000000149,38275.70000000112,39395.20000000112,39723.20000000112,40075.10000000149,40403,40771.10000000149,41155.20000000112,41475.10000000149,41859.10000000149,42243.20000000112,42579,42979.20000000112,43307,43867.40000000037,44786.90000000037,45155,45795.60000000149,46187.20000000112,46643,47259.10000000149,47690.90000000037,48075.10000000149,49659.40000000037],"honeypot":0,"survey":"mace","page":9,"trial_type":"survey-mace","trial_index":17,"time_elapsed":645245,"internal_node_id":"0.0-17.0","task_version":"prescreen-v0.3","browser_interactions":0},{"responses":{"01":"No","02":"No","03":"No","04":"No","05":"Yes","05_ages_8":"8","05_ages_9":"9","05_ages_10":"10","05_ages_11":"11","05_ages_12":"12","05_ages_13":"13","05_ages_14":"14","05_ages_15":"15","05_ages_16":"16","05_ages_17":"17","05_ages_18":"18","06":"Yes","06_ages_17":"17","07":"Yes","07_ages_1":"1","07_ages_2":"2","07_ages_3":"3","07_ages_4":"4","07_ages_5":"5","07_ages_6":"6","07_ages_7":"7","07_ages_8":"8","07_ages_9":"9","07_ages_10":"10","07_ages_11":"11","07_ages_12":"12","07_ages_13":"13","07_ages_14":"14","07_ages_15":"15","07_ages_16":"16","07_ages_17":"17","07_ages_18":"18","08":"Yes","08_ages_1":"1","08_ages_2":"2","08_ages_3":"3","08_ages_4":"4","08_ages_5":"5","08_ages_6":"6","08_ages_7":"7","08_ages_8":"8","08_ages_9":"9","08_ages_10":"10","08_ages_11":"11","08_ages_12":"12","08_ages_13":"13","08_ages_14":"14","08_ages_15":"15","08_ages_16":"16","08_ages_17":"17","08_ages_18":"18"},"rt":65126.5,"item_order":[0,1,2,3,4,5,6,7],"radio_events":[3220.5,4059.5,14868.299999998882,16859.900000000373,29331.299999998882,39019.5,41827.40000000037,54067.40000000037],"checkbox_events":[19739.400000000373,20075.599999999627,20363.299999998882,20627.299999998882,21467.199999999255,21811.400000000373,22179.799999998882,22995.400000000373,23403.299999998882,23755.299999998882,24227.900000000373,30499.400000000373,42987.59999999963,43499.5,44035.699999999255,44643.199999999255,45011.699999999255,45380,45939.79999999888,46291.29999999888,46611.40000000037,47859.90000000037,48203.199999999255,48555.29999999888,48843.40000000037,49179.40000000037,49571.199999999255,50251.29999999888,50731.40000000037,52091.199999999255,55435.29999999888,56507.90000000037,56971.90000000037,57347.79999999888,58179.199999999255,58547.199999999255,59003.699999999255,59403.199999999255,59987.90000000037,60339.90000000037,61507.59999999963,61867.699999999255,62443.199999999255,62763.79999999888,63107.40000000037,64011.90000000037,64355.29999999888,64740.59999999963],"key_events":[],"mouse_events":[3220.5,4059.5,14868.299999998882,16859.900000000373,19739.400000000373,20075.599999999627,20363.299999998882,20627.299999998882,20963.5,21467.199999999255,21811.400000000373,22179.799999998882,22491.199999999255,22995.400000000373,23403.299999998882,23755.299999998882,24227.900000000373,27795.199999999255,29331.299999998882,30499.400000000373,39019.5,41827.40000000037,42987.59999999963,43499.5,44035.699999999255,44643.199999999255,45011.699999999255,45380,45939.79999999888,46291.29999999888,46611.40000000037,47859.90000000037,48203.199999999255,48555.29999999888,48843.40000000037,49179.40000000037,49571.199999999255,49899.199999999255,50251.29999999888,50731.40000000037,51220.29999999888,51459.09999999963,52091.199999999255,54067.40000000037,55435.29999999888,56507.90000000037,56971.90000000037,57347.79999999888,57715.29999999888,58179.199999999255,58547.199999999255,59003.699999999255,59403.199999999255,59987.90000000037,60339.90000000037,60699.29999999888,61507.59999999963,61867.699999999255,62443.199999999255,62763.79999999888,63107.40000000037,63468,64011.90000000037,64355.29999999888,64740.59999999963,65123.5],"honeypot":0,"survey":"mace","page":10,"trial_type":"survey-mace","trial_index":18,"time_elapsed":710375,"internal_node_id":"0.0-18.0","task_version":"prescreen-v0.3","browser_interactions":0,"instructed":0},{"rt":5698.0999999996275,"trial_type":"mental-health-alert","trial_index":19,"time_elapsed":716075,"internal_node_id":"0.0-19.0","task_version":"prescreen-v0.3","interactions":"[{\"event\":\"blur\",\"trial\":16,\"time\":577325},{\"event\":\"focus\",\"trial\":16,\"time\":587959}]"}]