[{"view_history":[{"page_index":0,"viewing_time":3019.399999976158},{"page_index":1,"viewing_time":3003},{"page_index":2,"viewing_time":1447.800000011921},{"page_index":3,"viewing_time":684.1000000238419}],"rt":8155.399999976158,"trial_type":"instructions","trial_index":0,"time_elapsed":8172,"internal_node_id":"0.0-0.0","task_version":"prescreen-v0.3"},{"rt":21207.5,"responses":{"age":"25","gender-categorical":"Male","gender-free-response":"","ethnicity":"Not Hispanic or Latino","race":["White"],"education":"Some college","siblings":"5"},"trial_type":"survey-demo","trial_index":1,"time_elapsed":29387,"internal_node_id":"0.0-1.0","task_version":"prescreen-v0.3"},{"responses":{"Q16":"3","Q19":"0","Q13":"3","Q11":"3","Q12":"3","Q07":"0","Q02":"0","Q21":"3","Q03":"0","Q14":"3","Q09":"1","Q06":"0","Q04":"3","Q08":"3","Q20":"0","Q17":"0","Q18":"1","Q01":"1","Q10":"3","Q05":"1","Q15":"3"},"rt":243655.39999997616,"item_order":[15,18,12,10,11,6,1,20,2,13,8,5,3,7,19,16,17,0,9,4,14],"radio_events":[6432.5,12792.099999964237,15883.899999976158,18488.099999964237,22026,28851.899999976158,39592,40939.80000001192,55801.69999998808,58569.5,97933.39999997616,99147.39999997616,106237.59999996424,108723.30000001192,113047.09999996424,118601.30000001192,123841.19999998808,127719.30000001192,128118.89999997616,131563.19999998808,135863,210088.59999996424,215104.59999996424,217376.5,221200.5,241572.39999997616,243280.30000001192],"key_events":[],"mouse_events":[6432.5,12330.199999988079,12792.099999964237,15490.099999964237,15883.899999976158,18488.099999964237,21535.69999998808,22026,27517.80000001192,28200,28851.899999976158,39592,40482,40939.80000001192,41481.89999997616,48377.59999996424,55801.69999998808,58569.5,97127.59999996424,97933.39999997616,99147.39999997616,105701.5,106237.59999996424,107563.39999997616,108102.89999997616,108723.30000001192,113047.09999996424,115821.89999997616,116685.30000001192,118601.30000001192,123841.19999998808,125887.39999997616,126291.19999998808,127027.19999998808,127719.30000001192,128118.89999997616,131563.19999998808,135863,176593.80000001192,178235,209618.80000001192,210088.59999996424,212618.80000001192,213292.59999996424,214040.80000001192,214444.5,215104.59999996424,217376.5,220496.59999996424,220804.59999996424,221200.5,236554.19999998808,237982.5,239086.39999997616,241572.39999997616,242314.19999998808,242802.39999997616,243280.30000001192,243652.5],"straightlining":0.47619047619047616,"zigzagging":0.5,"honeypot":0,"survey":"sns","trial_type":"survey-template","trial_index":2,"time_elapsed":273049,"internal_node_id":"0.0-2.0","task_version":"prescreen-v0.3","browser_interactions":2,"infrequency":0},{"responses":{"Q07":"3","Q10":"1","Q05":"3","Q12":"1","Q04":"2","Q03":"3","Q01":"3","Q09":"1","Q02":"3","Q08":"3","Q13":"0","Q06":"1","Q11":"0"},"rt":87066.10000002384,"item_order":[6,9,4,11,3,2,0,8,1,7,12,5,10],"radio_events":[3516.900000035763,10240.700000047684,12044.800000011921,15716.700000047684,21706.600000023842,24504.600000023842,27312.600000023842,29284.5,33378.60000002384,37550.5,39700.5,45022.40000003576,48028.5,72540.20000004768,76762.30000001192,79180.20000004768,86372.10000002384],"key_events":[],"mouse_events":[3516.900000035763,8468.800000011921,9774.700000047684,10240.700000047684,12044.800000011921,15716.700000047684,17884.700000047684,21706.600000023842,24504.600000023842,27312.600000023842,29284.5,31472.400000035763,31892.400000035763,32468.400000035763,33378.60000002384,37550.5,39700.5,44538.60000002384,45022.40000003576,48028.5,72136.30000001192,72540.20000004768,73450.40000003576,74352.30000001192,74739.80000001192,75006.40000003576,75196.40000003576,75382.10000002384,75566.20000004768,76062.30000001192,76398.30000001192,76762.30000001192,77256,77908.10000002384,78798.30000001192,79180.20000004768,85573.90000003576,86035.90000003576,86372.10000002384,87064.20000004768],"straightlining":0.46153846153846156,"zigzagging":0.4166666666666667,"honeypot":0,"survey":"bisbas","trial_type":"survey-template","trial_index":3,"time_elapsed":360121,"internal_node_id":"0.0-3.0","task_version":"prescreen-v0.3","browser_interactions":0,"infrequency":0},{"responses":{"Q01":"1","Q02":"1","Q03":"2"},"rt":28808.099999964237,"radio_events":[8295.399999976158,16449.399999976158,21423.299999952316,26853,27815.19999998808],"key_events":[],"mouse_events":[8295.399999976158,16449.399999976158,18755.299999952316,19561.19999998808,21423.299999952316,24791.19999998808,26069.299999952316,26853,27815.19999998808,28807.19999998808],"survey":"map","page":1,"trial_type":"survey-map","trial_index":4,"time_elapsed":388934,"internal_node_id":"0.0-4.0","task_version":"prescreen-v0.3","browser_interactions":0},{"responses":{"Q04":"3","Q05":"2","Q06":"3"},"rt":19714.299999952316,"radio_events":[10533.699999988079,15391.599999964237,19189.5],"key_events":[],"mouse_events":[10533.699999988079,15391.599999964237,19189.5,19713.599999964237],"survey":"map","page":2,"trial_type":"survey-map","trial_index":5,"time_elapsed":408651,"internal_node_id":"0.0-5.0","task_version":"prescreen-v0.3","browser_interactions":0},{"responses":{"Q07":"2","Q08":"2","Q09":"2"},"rt":83506.30000001192,"radio_events":[33580.5,78283.80000001192,83001.60000002384],"key_events":[],"mouse_events":[4982.200000047684,21312.700000047684,21707.900000035763,22540.5,22958.200000047684,24151.80000001192,24486.600000023842,24940.700000047684,25410.200000047684,33580.5,77635.80000001192,78283.80000001192,81559.60000002384,81957.70000004768,82631.5,83001.60000002384,83505.60000002384],"survey":"map","page":3,"trial_type":"survey-map","trial_index":6,"time_elapsed":492160,"internal_node_id":"0.0-6.0","task_version":"prescreen-v0.3","browser_interactions":2},{"responses":{"Q10":"1","Q11":"1","Q12":"1","Q13":"1","Q16":"0","Q14":"1","Q15":"2"},"rt":160868.19999998808,"radio_events":[4445.800000011921,8203.899999976158,12477.5,13461.699999988079,16299.800000011921,19201.69999998808,21445.69999998808,27439.5,30521.399999976158,115321,116250.89999997616,160271.09999996424],"key_events":[],"mouse_events":[4445.800000011921,7471.800000011921,8203.899999976158,12129.899999976158,12477.5,13023.699999988079,13461.699999988079,16299.800000011921,17256.399999976158,17851.599999964237,19201.69999998808,21445.69999998808,27439.5,30521.399999976158,43864.30000001192,44257.5,62539.19999998808,65847.39999997616,66863.19999998808,69153.09999996424,69601.39999997616,107962.80000001192,108281.09999996424,109001.19999998808,109377,110858.80000001192,111287.09999996424,112800.80000001192,115321,115840.80000001192,116250.89999997616,135336.69999998808,135665,158152.5,159178.59999996424,159656.69999998808,160271.09999996424,160866.80000001192],"survey":"map","page":4,"trial_type":"survey-map","trial_index":7,"time_elapsed":653032,"internal_node_id":"0.0-7.0","task_version":"prescreen-v0.3","browser_interactions":0,"infrequency":0},{"view_history":[{"page_index":0,"viewing_time":1869.7000000476837},{"page_index":1,"viewing_time":6797.699999988079}],"rt":8668.100000023842,"trial_type":"instructions","trial_index":8,"time_elapsed":661702,"internal_node_id":"0.0-8.0","task_version":"prescreen-v0.3"},{"responses":{"01":"No","02":"Yes","02_ages_15":"15","02_ages_16":"16","03":"Yes","03_ages_10":"10","03_ages_11":"11","03_ages_12":"12","03_ages_13":"13","04":"No","05":"No","06":"Yes","06_ages_13":"13"},"rt":112999,"item_order":[0,1,2,3,4,5],"radio_events":[16687.5,18149.400000035763,46463.30000001192,52441,61831,99286.60000002384,106594.40000003576],"checkbox_events":[29565.19999998808,40647.19999998808,80024.80000001192,80396.80000001192,82576.80000001192,82959,84778.80000001192,85934.60000002384,89524.90000003576,89814.80000001192,90170.80000001192,90556.80000001192,102448.60000002384,103200.60000002384,103702.60000002384],"key_events":[],"mouse_events":[0.19999998807907104,16687.5,18149.400000035763,28801.400000035763,29565.19999998808,38663.10000002384,40647.19999998808,46463.30000001192,52441,61831,80024.80000001192,80396.80000001192,81716.40000003576,82576.80000001192,82959,84778.80000001192,85414.69999998808,85934.60000002384,89062.69999998808,89524.90000003576,89814.80000001192,90170.80000001192,90556.80000001192,98692.60000002384,99286.60000002384,102448.60000002384,103200.60000002384,103702.60000002384,106594.40000003576,112995.10000002384],"honeypot":0,"survey":"mace","page":1,"trial_type":"survey-mace","trial_index":9,"time_elapsed":774711,"internal_node_id":"0.0-9.0","task_version":"prescreen-v0.3","browser_interactions":0},{"responses":{"01":"No","02":"No","03":"No","04":"Yes","04_ages_5":"5","05":"No","06":"No","07":"No","08":"No"},"rt":85924.09999996424,"item_order":[0,1,2,3,4,5,6,7],"radio_events":[23157.099999964237,30929.099999964237,50228.89999997616,51358.89999997616,62323,70562.69999998808,77554.69999998808,79714.59999996424,81540.59999996424,85466.69999998808],"checkbox_events":[74310.69999998808],"key_events":[],"mouse_events":[22642.899999976158,23157.099999964237,30929.099999964237,50228.89999997616,51358.89999997616,54033.5,54698.5,62323,70562.69999998808,74310.69999998808,74844.59999996424,77554.69999998808,79714.59999996424,81540.59999996424,85042.5,85466.69999998808,85918.79999995232],"honeypot":0,"survey":"mace","page":2,"trial_type":"survey-mace","trial_index":10,"time_elapsed":860641,"internal_node_id":"0.0-10.0","task_version":"prescreen-v0.3","browser_interactions":0},{"responses":{"01":"No","02":"No","03":"No","04":"No"},"rt":12394,"item_order":[0,1,2,3],"radio_events":[7781.199999988079,9671.199999988079,10983.100000023842,12038.899999976158],"checkbox_events":[],"key_events":[],"mouse_events":[7781.199999988079,8274.699999988079,9671.199999988079,10202.899999976158,10983.100000023842,11488.699999988079,12038.899999976158,12391.199999988079],"honeypot":0,"survey":"mace","page":3,"trial_type":"survey-mace","trial_index":11,"time_elapsed":873040,"internal_node_id":"0.0-11.0","task_version":"prescreen-v0.3","browser_interactions":0},{"responses":{"01":"No","02":"No"},"rt":8422.5,"item_order":[0,1],"radio_events":[2835.100000023842,8073.600000023842],"checkbox_events":[],"key_events":[],"mouse_events":[2835.100000023842,5565.100000023842,8073.600000023842,8421],"honeypot":0,"survey":"mace","page":4,"trial_type":"survey-mace","trial_index":12,"time_elapsed":881466,"internal_node_id":"0.0-12.0","task_version":"prescreen-v0.3","browser_interactions":0},{"responses":{"01":"No","02":"No","03":"No","04":"No","05":"No"},"rt":20671.599999964237,"item_order":[0,1,2,3,4],"radio_events":[10700.199999988079,14308,15622.199999988079,17919.80000001192,19464.099999964237],"checkbox_events":[],"key_events":[],"mouse_events":[8911.899999976158,9862.099999964237,10700.199999988079,13781.800000011921,14308,15622.199999988079,16868.099999964237,17919.80000001192,19464.099999964237,20668.099999964237],"honeypot":0,"survey":"mace","page":5,"trial_type":"survey-mace","trial_index":13,"time_elapsed":902142,"internal_node_id":"0.0-13.0","task_version":"prescreen-v0.3","browser_interactions":0},{"responses":{"01":"Yes","01_ages_11":"11","01_ages_12":"12","02":"Yes","02_ages_10":"10","02_ages_11":"11","02_ages_12":"12","02_ages_13":"13","02_ages_14":"14","02_ages_15":"15","02_ages_16":"16","02_ages_17":"17","02_ages_18":"18","03":"No","04":"Yes","04_ages_15":"15","04_ages_16":"16","05":"No"},"rt":58082.299999952316,"item_order":[0,1,2,3,4],"radio_events":[8861.199999988079,10305.199999988079,11219,15053.199999988079,27277.19999998808,42671,44701,57604.89999997616],"checkbox_events":[17967.099999964237,19871.19999998808,21389.19999998808,24639.099999964237,30895.099999964237,31199.099999964237,32065,33245.09999996424,33667,34487,35175.19999998808,35633,37208.799999952316,48496.89999997616,48941.39999997616,49956.89999997616,53708.799999952316],"key_events":[],"mouse_events":[7703.199999988079,8435.099999964237,8861.199999988079,10305.199999988079,11219,14745.099999964237,15053.199999988079,17315.099999964237,17967.099999964237,19871.19999998808,21389.19999998808,24639.099999964237,27277.19999998808,30562.899999976158,30895.099999964237,31199.099999964237,31800.599999964237,32065,32461.19999998808,32833.09999996424,33245.09999996424,33667,34063,34487,35175.19999998808,35633,37208.799999952316,42671,44701,48496.89999997616,48941.39999997616,49956.89999997616,53708.799999952316,57046.59999996424,57604.89999997616,58079],"honeypot":0,"survey":"mace","page":6,"trial_type":"survey-mace","trial_index":14,"time_elapsed":960230,"internal_node_id":"0.0-14.0","task_version":"prescreen-v0.3","browser_interactions":0},{"responses":{"01":"No","02":"No","03":"No","04":"No","05":"No","06":"No","07":"No"},"rt":21831.30000001192,"item_order":[0,1,2,3,4,5,6],"radio_events":[6990.699999988079,10110.599999964237,16074.199999988079,17406.599999964237,19062.399999976158,19626.399999976158,21380.599999964237],"checkbox_events":[],"key_events":[],"mouse_events":[6990.699999988079,10110.599999964237,12668.5,13402.599999964237,16074.199999988079,17406.599999964237,18314.399999976158,19062.399999976158,19626.399999976158,20668.5,21009.099999964237,21380.599999964237,21826.5],"honeypot":0,"survey":"mace","page":7,"trial_type":"survey-mace","trial_index":15,"time_elapsed":982068,"internal_node_id":"0.0-15.0","task_version":"prescreen-v0.3","browser_interactions":0},{"responses":{"01":"Yes","01_ages_8":"8","01_ages_9":"9","01_ages_10":"10","01_ages_11":"11","01_ages_12":"12","01_ages_13":"13","01_ages_14":"14","01_ages_15":"15","01_ages_16":"16","01_ages_17":"17","01_ages_18":"18","02":"No","03":"No","04":"No"},"rt":68996.70000004768,"item_order":[0,1,2,3],"radio_events":[17762.100000023842,35114,40808.10000002384,41726.200000047684,43080,56490,58642,67494],"checkbox_events":[27828.200000047684,28398.200000047684,28532.200000047684,29232.200000047684,29584.100000023842,30368.200000047684,30929.900000035763,31384.200000047684,32014.100000023842,32464.200000047684,33018.10000002384,33362.200000047684,33710.200000047684],"key_events":[],"mouse_events":[3589.600000023842,3996.400000035763,12890.800000011921,17762.100000023842,27828.200000047684,28398.200000047684,28532.200000047684,28991.30000001192,29232.200000047684,29584.100000023842,30368.200000047684,30929.900000035763,31384.200000047684,31767.80000001192,32014.100000023842,32464.200000047684,33018.10000002384,33362.200000047684,33710.200000047684,34717.700000047684,35114,39151.90000003576,39697.80000001192,40138,40808.10000002384,41726.200000047684,43080,49141.700000047684,49534,56490,58642,62654.200000047684,67494,68135.80000001192,68496.70000004768,68994],"honeypot":0,"survey":"mace","page":8,"trial_type":"survey-mace","trial_index":16,"time_elapsed":1051068,"internal_node_id":"0.0-16.0","task_version":"prescreen-v0.3","browser_interactions":0},{"responses":{"01":"No","02":"No","03":"Yes","03_ages_1":"1","03_ages_2":"2","03_ages_3":"3","03_ages_4":"4","03_ages_5":"5","03_ages_6":"6","03_ages_7":"7","03_ages_8":"8","03_ages_9":"9","03_ages_10":"10","03_ages_11":"11","03_ages_12":"12","03_ages_13":"13","03_ages_14":"14","03_ages_15":"15","03_ages_16":"16","03_ages_17":"17","03_ages_18":"18","04":"Yes","04_ages_1":"1","04_ages_2":"2","04_ages_3":"3","04_ages_4":"4","04_ages_5":"5","04_ages_6":"6","04_ages_7":"7","04_ages_8":"8","04_ages_9":"9","04_ages_10":"10","04_ages_11":"11","04_ages_12":"12","04_ages_13":"13","04_ages_14":"14","04_ages_15":"15","04_ages_16":"16","04_ages_17":"17","04_ages_18":"18"},"rt":38467.90000003576,"item_order":[0,1,2,3],"radio_events":[5824.600000023842,7910.800000011921,14898.700000047684,15970.800000011921],"checkbox_events":[17182.80000001192,17708.5,18214.700000047684,18680.700000047684,20076.80000001192,20578.80000001192,21594.700000047684,22024.600000023842,22496.400000035763,23444.600000023842,23900.5,24478.5,25118.700000047684,25738.80000001192,26214.700000047684,26814.80000001192,27290.700000047684,27938.700000047684,29128.700000047684,29694.80000001192,30147.30000001192,30640.700000047684,31150.700000047684,31712.80000001192,32238.400000035763,32760.80000001192,33214.700000047684,33852.90000003576,34378.30000001192,34856.60000002384,35346.700000047684,36138.700000047684,36526.60000002384,37246.60000002384,37640.30000001192,37954.700000047684],"key_events":[],"mouse_events":[5444.600000023842,5824.600000023842,7910.800000011921,12190.800000011921,14498.700000047684,14898.700000047684,15970.800000011921,17182.80000001192,17708.5,18214.700000047684,18680.700000047684,19178.900000035763,19720.400000035763,20076.80000001192,20578.80000001192,21235.30000001192,21594.700000047684,22024.600000023842,22496.400000035763,23018.700000047684,23444.600000023842,23900.5,24478.5,25118.700000047684,25738.80000001192,26214.700000047684,26814.80000001192,27290.700000047684,27938.700000047684,29128.700000047684,29694.80000001192,30147.30000001192,30640.700000047684,31150.700000047684,31712.80000001192,32238.400000035763,32760.80000001192,33214.700000047684,33852.90000003576,34378.30000001192,34856.60000002384,35346.700000047684,36138.700000047684,36526.60000002384,37246.60000002384,37640.30000001192,37954.700000047684,38465.10000002384],"honeypot":0,"survey":"mace","page":9,"trial_type":"survey-mace","trial_index":17,"time_elapsed":1089541,"internal_node_id":"0.0-17.0","task_version":"prescreen-v0.3","browser_interactions":0},{"responses":{"01":"Yes","01_ages_1":"1","01_ages_2":"2","01_ages_3":"3","01_ages_4":"4","01_ages_5":"5","01_ages_6":"6","01_ages_7":"7","01_ages_8":"8","01_ages_9":"9","01_ages_10":"10","01_ages_11":"11","01_ages_12":"12","01_ages_13":"13","01_ages_14":"14","01_ages_15":"15","01_ages_16":"16","01_ages_17":"17","01_ages_18":"18","02":"No","03":"No","04":"No","05":"No","06":"Yes","06_ages_17":"17","07":"No","08":"No"},"rt":123187.80000001192,"item_order":[0,1,2,3,4,5,6,7],"radio_events":[5098.899999976158,20463,23097.100000023842,25409,30702.80000001192,33764.89999997616,38810.69999998808,41034.80000001192],"checkbox_events":[34928.69999998808,61238.80000001192,61718.80000001192,63546.80000001192,64432.80000001192,71516.69999998808,72244.60000002384,78376.60000002384,78732.19999998808,92548.5,92888.19999998808,93934.5,94372.5,95210.5,95840.60000002384,96282.39999997616,96974.80000001192,97746.5,98228.80000001192,98676.10000002384,99090.5,99490.19999998808,99870.5,100676.39999997616,101400.39999997616,102456.5,103490.30000001192,104058.39999997616,104628.69999998808,105297.10000002384,105776.39999997616,106174.10000002384,107136.5,107610.60000002384,108164.39999997616],"key_events":[],"mouse_events":[5098.899999976158,20463,23097.100000023842,24844.899999976158,25409,30702.80000001192,33764.89999997616,34928.69999998808,38810.69999998808,40608.80000001192,41034.80000001192,61238.80000001192,61718.80000001192,63234.60000002384,63546.80000001192,64044.30000001192,64432.80000001192,71516.69999998808,71840.5,72244.60000002384,78376.60000002384,78732.19999998808,92548.5,92888.19999998808,93284,93502.10000002384,93934.5,94372.5,95210.5,95840.60000002384,96282.39999997616,96695.30000001192,96974.80000001192,97746.5,98228.80000001192,98676.10000002384,99090.5,99490.19999998808,99870.5,100432.39999997616,100676.39999997616,101160.30000001192,101400.39999997616,101986,102456.5,103288.10000002384,103490.30000001192,104058.39999997616,104628.69999998808,105297.10000002384,105776.39999997616,106174.10000002384,106642.30000001192,107136.5,107610.60000002384,108164.39999997616,123182.39999997616],"honeypot":0,"survey":"mace","page":10,"trial_type":"survey-mace","trial_index":18,"time_elapsed":1212735,"internal_node_id":"0.0-18.0","task_version":"prescreen-v0.3","browser_interactions":0,"instructed":0},{"rt":4568.099999964237,"trial_type":"mental-health-alert","trial_index":19,"time_elapsed":1217305,"internal_node_id":"0.0-19.0","task_version":"prescreen-v0.3","interactions":"[{\"event\":\"blur\",\"trial\":1,\"time\":9518},{\"event\":\"focus\",\"trial\":1,\"time\":11418},{\"event\":\"blur\",\"trial\":2,\"time\":254155},{\"event\":\"focus\",\"trial\":2,\"time\":255294},{\"event\":\"blur\",\"trial\":6,\"time\":421011},{\"event\":\"focus\",\"trial\":6,\"time\":422855},{\"event\":\"blur\",\"trial\":8,\"time\":658070},{\"event\":\"focus\",\"trial\":8,\"time\":659986}]"}]