[{"view_history":[{"page_index":0,"viewing_time":5499.20000000298},{"page_index":1,"viewing_time":5952.79999999702},{"page_index":2,"viewing_time":3946.7000000029802},{"page_index":3,"viewing_time":1058.0999999940395}],"rt":16458.20000000298,"trial_type":"instructions","trial_index":0,"time_elapsed":16464,"internal_node_id":"0.0-0.0","task_version":"prescreen-v0.3"},{"rt":13473.5,"responses":{"age":"29","gender-categorical":"Female","gender-free-response":"","ethnicity":"Not Hispanic or Latino","race":["White"],"education":"Bachelor degree"},"trial_type":"survey-demo","trial_index":1,"time_elapsed":29942,"internal_node_id":"0.0-1.0","task_version":"prescreen-v0.3"},{"responses":{"Q08":"2","Q15":"2","Q05":"0","Q19":"0","Q13":"1","Q14":"3","Q17":"1","Q21":"3","Q18":"1","Q06":"0","Q01":"0","Q07":"0","Q20":"0","Q02":"0","Q11":"2","Q16":"2","Q04":"2","Q10":"0","Q12":"0","Q03":"2","Q09":"2"},"rt":74285.20000000298,"item_order":[7,14,4,18,12,13,16,20,17,5,0,6,19,1,10,15,3,9,11,2,8],"radio_events":[2784.5,3954.5,10074.90000000596,17443.40000000596,20391.70000000298,23474,25949.60000000894,28975.90000000596,31844.79999999702,35467.70000000298,39303.90000000596,41812.90000000596,44658.40000000596,46886.70000000298,48991,51072,57079.90000000596,60297.79999999702,63650.40000000596,66699.29999999702,69804.29999999702,73674.60000000894],"key_events":[2784.5,17443.40000000596,20391.70000000298,28975.90000000596,35467.70000000298,39303.90000000596,41812.90000000596,44658.40000000596,46886.70000000298,48991,63650.40000000596,66699.29999999702],"mouse_events":[3515,3954.5,10074.90000000596,23474,25949.60000000894,28436.10000000894,31844.79999999702,51072,57079.90000000596,60297.79999999702,69804.29999999702,73674.60000000894,74282.10000000894],"straightlining":0.42857142857142855,"zigzagging":0.1,"honeypot":0,"survey":"sns","trial_type":"survey-template","trial_index":2,"time_elapsed":104231,"internal_node_id":"0.0-2.0","task_version":"prescreen-v0.3","browser_interactions":0,"infrequency":0},{"responses":{"Q12":"1","Q11":"1","Q06":"3","Q05":"2","Q07":"3","Q10":"1","Q04":"3","Q08":"2","Q01":"3","Q13":"0","Q03":"3","Q02":"3","Q09":"2"},"rt":45423.89999999106,"item_order":[11,10,5,4,6,9,3,7,0,12,2,1,8],"radio_events":[9386.59999999404,10781.5,14213.09999999404,17003.39999999106,19367.09999999404,21368.39999999106,23303.59999999404,27051.5,28613.89999999106,30752.39999999106,36073.20000000298,38649.5,41597,44679.70000000298],"key_events":[9386.59999999404,10781.5,21368.39999999106,30752.39999999106,41597],"mouse_events":[14213.09999999404,17003.39999999106,19367.09999999404,23303.59999999404,27051.5,28613.89999999106,36073.20000000298,38278.20000000298,38649.5,44679.70000000298,45422.20000000298],"straightlining":0.46153846153846156,"zigzagging":0.5833333333333334,"honeypot":0,"survey":"bisbas","trial_type":"survey-template","trial_index":3,"time_elapsed":149657,"internal_node_id":"0.0-3.0","task_version":"prescreen-v0.3","browser_interactions":0,"infrequency":0},{"responses":{"Q01":"2","Q02":"2","Q03":"2"},"rt":16534.09999999404,"radio_events":[5912.29999999702,9444,13608.70000000298],"key_events":[],"mouse_events":[5912.29999999702,9444,13608.70000000298,16532.90000000596],"survey":"map","page":1,"trial_type":"survey-map","trial_index":4,"time_elapsed":166195,"internal_node_id":"0.0-4.0","task_version":"prescreen-v0.3","browser_interactions":0},{"responses":{"Q04":"3","Q05":"4","Q06":"2"},"rt":13407.40000000596,"radio_events":[6712.20000000298,8118.79999999702,11955.29999999702],"key_events":[],"mouse_events":[6712.20000000298,8118.79999999702,11955.29999999702,13406.40000000596],"survey":"map","page":2,"trial_type":"survey-map","trial_index":5,"time_elapsed":179605,"internal_node_id":"0.0-5.0","task_version":"prescreen-v0.3","browser_interactions":0},{"responses":{"Q07":"1","Q08":"4","Q09":"3"},"rt":15039.29999999702,"radio_events":[8130.5999999940395,11258.09999999404,14374.59999999404],"key_events":[8130.5999999940395],"mouse_events":[11258.09999999404,14374.59999999404,15038.29999999702],"survey":"map","page":3,"trial_type":"survey-map","trial_index":6,"time_elapsed":194646,"internal_node_id":"0.0-6.0","task_version":"prescreen-v0.3","browser_interactions":0},{"responses":{"Q10":"2","Q11":"1","Q12":"0","Q13":"1","Q16":"0","Q14":"3","Q15":"4"},"rt":34954,"radio_events":[4294,5565.300000011921,7095.4000000059605,12439.40000000596,21304.30000001192,25467.60000000894,31126.60000000894,34490.80000001192],"key_events":[5565.300000011921,7095.4000000059605,12439.40000000596,20753.5,21304.30000001192,24794.40000000596,25467.60000000894],"mouse_events":[4294,31126.60000000894,34490.80000001192,34952],"survey":"map","page":4,"trial_type":"survey-map","trial_index":7,"time_elapsed":229602,"internal_node_id":"0.0-7.0","task_version":"prescreen-v0.3","browser_interactions":0,"infrequency":0},{"view_history":[{"page_index":0,"viewing_time":2470.5},{"page_index":1,"viewing_time":4241.5}],"rt":6713.100000008941,"trial_type":"instructions","trial_index":8,"time_elapsed":236316,"internal_node_id":"0.0-8.0","task_version":"prescreen-v0.3"},{"responses":{"01":"No","02":"Yes","02_ages_12":"12","02_ages_13":"13","02_ages_14":"14","02_ages_15":"15","02_ages_16":"16","02_ages_17":"17","02_ages_18":"18","03":"Yes","03_ages_7":"7","03_ages_8":"8","04":"No","05":"No","06":"No"},"rt":40591.29999999702,"item_order":[0,1,2,3,4,5],"radio_events":[9670.40000000596,11415.29999999702,30078.79999999702,37020.59999999404,38134.5,40069.5],"checkbox_events":[18255.09999999404,19064.90000000596,19953.29999999702,20437.20000000298,20821.29999999702,21461.29999999702,21910.59999999404,32272.90000000596,32914.29999999702],"key_events":[0.09999999403953552,11415.29999999702,30078.79999999702,32272.90000000596,32914.29999999702],"mouse_events":[9670.40000000596,18255.09999999404,19064.90000000596,19953.29999999702,20437.20000000298,20821.29999999702,21461.29999999702,21910.59999999404,37020.59999999404,38134.5,40069.5,40587.5],"honeypot":0,"survey":"mace","page":1,"trial_type":"survey-mace","trial_index":9,"time_elapsed":276913,"internal_node_id":"0.0-9.0","task_version":"prescreen-v0.3","browser_interactions":0},{"responses":{"01":"No","02":"No","03":"Yes","03_ages_6":"6","03_ages_7":"7","03_ages_8":"8","03_ages_9":"9","04":"No","05":"No","06":"Yes","06_ages_12":"12","06_ages_13":"13","06_ages_14":"14","07":"No","08":"No"},"rt":44177,"item_order":[0,1,2,3,4,5,6,7],"radio_events":[6223.9000000059605,9542.800000011921,11759.10000000894,27251.20000000298,28915.40000000596,32066.70000000298,41022.10000000894,42564.5],"checkbox_events":[21164.5,21727.20000000298,22458.5,23212.20000000298,36353.10000000894,36893.10000000894,39469.40000000596],"key_events":[11759.10000000894,21164.5,21727.20000000298,22458.5,23212.20000000298,32066.70000000298],"mouse_events":[6223.9000000059605,9542.800000011921,27251.20000000298,28915.40000000596,36353.10000000894,36893.10000000894,39469.40000000596,41022.10000000894,42564.5,44172.90000000596],"honeypot":0,"survey":"mace","page":2,"trial_type":"survey-mace","trial_index":10,"time_elapsed":321093,"internal_node_id":"0.0-10.0","task_version":"prescreen-v0.3","browser_interactions":0},{"responses":{"01":"No","02":"No","03":"No","04":"No"},"rt":17173.79999999702,"item_order":[0,1,2,3],"radio_events":[8260.20000000298,11950.5,15066.70000000298,16180.79999999702],"checkbox_events":[],"key_events":[],"mouse_events":[8260.20000000298,11950.5,15066.70000000298,16180.79999999702,17171.10000000894],"honeypot":0,"survey":"mace","page":3,"trial_type":"survey-mace","trial_index":11,"time_elapsed":338270,"internal_node_id":"0.0-11.0","task_version":"prescreen-v0.3","browser_interactions":0},{"responses":{"01":"No","02":"No"},"rt":8625.20000000298,"item_order":[0,1],"radio_events":[6339.20000000298,7239.29999999702],"checkbox_events":[],"key_events":[],"mouse_events":[6339.20000000298,7239.29999999702,8623.20000000298],"honeypot":0,"survey":"mace","page":4,"trial_type":"survey-mace","trial_index":12,"time_elapsed":346897,"internal_node_id":"0.0-12.0","task_version":"prescreen-v0.3","browser_interactions":0},{"responses":{"01":"No","02":"No","03":"No","04":"No","05":"No"},"rt":19045.59999999404,"item_order":[0,1,2,3,4],"radio_events":[8769.20000000298,11875.29999999702,14035.29999999702,16724.40000000596,18457],"checkbox_events":[],"key_events":[],"mouse_events":[8769.20000000298,11875.29999999702,14035.29999999702,16724.40000000596,18457,19042.09999999404],"honeypot":0,"survey":"mace","page":5,"trial_type":"survey-mace","trial_index":13,"time_elapsed":365946,"internal_node_id":"0.0-13.0","task_version":"prescreen-v0.3","browser_interactions":0},{"responses":{"01":"No","02":"Yes","02_ages_15":"15","02_ages_16":"16","02_ages_17":"17","02_ages_18":"18","03":"Yes","03_ages_12":"12","03_ages_13":"13","03_ages_14":"14","03_ages_15":"15","03_ages_16":"16","03_ages_17":"17","03_ages_18":"18","04":"Yes","04_ages_14":"14","04_ages_15":"15","04_ages_16":"16","04_ages_17":"17","04_ages_18":"18","05":"No"},"rt":40284.90000000596,"item_order":[0,1,2,3,4],"radio_events":[9578.09999999404,12334.29999999702,16936.09999999404,22910,31640.5,39673.5],"checkbox_events":[18713.59999999404,19276.20000000298,20334.79999999702,20987.90000000596,24722.40000000596,25486.5,26409,27107.90000000596,27862,28782.79999999702,29683.20000000298,35308.29999999702,35814.5,36230.79999999702,36995.70000000298,37288.59999999404],"key_events":[9578.09999999404,12334.29999999702,22910,31640.5],"mouse_events":[8002.9000000059605,16936.09999999404,18713.59999999404,19276.20000000298,20334.79999999702,20987.90000000596,24722.40000000596,25486.5,26027.79999999702,26409,27107.90000000596,27862,28782.79999999702,29683.20000000298,35308.29999999702,35814.5,36230.79999999702,36995.70000000298,37288.59999999404,39673.5,40281.5],"honeypot":0,"survey":"mace","page":6,"trial_type":"survey-mace","trial_index":14,"time_elapsed":406234,"internal_node_id":"0.0-14.0","task_version":"prescreen-v0.3","browser_interactions":0},{"responses":{"01":"No","02":"No","03":"Yes","03_ages_11":"11","03_ages_12":"12","03_ages_13":"13","03_ages_14":"14","03_ages_15":"15","03_ages_16":"16","03_ages_17":"17","03_ages_18":"18","04":"No","05":"No","06":"No","07":"No"},"rt":27875.29999999702,"item_order":[0,1,2,3,4,5,6],"radio_events":[7968.70000000298,8846.20000000298,12255.10000000894,14325.20000000298,15304.20000000298,15956.5,20805.5],"checkbox_events":[22493.40000000596,22864.29999999702,23280.79999999702,23663.40000000596,24090.70000000298,24508.60000000894,25092,25800.90000000596],"key_events":[20805.5,22493.40000000596],"mouse_events":[7968.70000000298,8846.20000000298,12255.10000000894,14325.20000000298,15304.20000000298,15956.5,22864.29999999702,23280.79999999702,23663.40000000596,24090.70000000298,24508.60000000894,25092,25800.90000000596,27871],"honeypot":0,"survey":"mace","page":7,"trial_type":"survey-mace","trial_index":15,"time_elapsed":434113,"internal_node_id":"0.0-15.0","task_version":"prescreen-v0.3","browser_interactions":0},{"responses":{"01":"No","01_ages_14":"14","01_ages_15":"15","01_ages_16":"16","02":"Yes","02_ages_7":"7","02_ages_8":"8","02_ages_9":"9","02_ages_10":"10","02_ages_11":"11","02_ages_12":"12","02_ages_13":"13","02_ages_14":"14","02_ages_15":"15","02_ages_16":"16","02_ages_17":"17","02_ages_18":"18","03":"No","04":"No"},"rt":52040.09999999404,"item_order":[0,1,2,3],"radio_events":[7213.899999991059,12839.699999988079,27082.69999998808,28140.29999999702,37152.19999998808],"checkbox_events":[9058.699999988079,9385.699999988079,9756.5,10296.79999999702,10611.79999999702,16248.29999999702,16598.69999998808,17643.59999999404,18329.79999999702,18870,19837.59999999404,20186.39999999106,20557.59999999404,21288.79999999702,21918.89999999106,22920.29999999702,23415.09999999404,23786.19999998808,24123.5,33574.29999999702,34113.59999999404],"key_events":[7213.899999991059,12839.699999988079,16248.29999999702,16598.69999998808,17643.59999999404,17947.5,18329.79999999702,18870,19184.79999999702,19837.59999999404,20186.39999999106],"mouse_events":[9058.699999988079,9385.699999988079,9756.5,10296.79999999702,10611.79999999702,20557.59999999404,20996,21288.79999999702,21918.89999999106,22256.59999999404,22920.29999999702,23415.09999999404,23786.19999998808,24123.5,27082.69999998808,28140.29999999702,33574.29999999702,34113.59999999404,37152.19999998808,52036.79999999702],"honeypot":0,"survey":"mace","page":8,"trial_type":"survey-mace","trial_index":16,"time_elapsed":486155,"internal_node_id":"0.0-16.0","task_version":"prescreen-v0.3","browser_interactions":0},{"responses":{"01":"Yes","01_ages_1":"1","01_ages_2":"2","01_ages_3":"3","01_ages_4":"4","01_ages_5":"5","01_ages_6":"6","01_ages_7":"7","01_ages_8":"8","01_ages_9":"9","01_ages_10":"10","01_ages_11":"11","01_ages_18":"18","02":"Yes","02_ages_1":"1","02_ages_2":"2","02_ages_3":"3","02_ages_4":"4","02_ages_5":"5","02_ages_6":"6","02_ages_7":"7","02_ages_8":"8","02_ages_9":"9","02_ages_10":"10","03":"Yes","03_ages_1":"1","03_ages_2":"2","03_ages_3":"3","03_ages_4":"4","03_ages_5":"5","03_ages_6":"6","03_ages_7":"7","03_ages_8":"8","03_ages_9":"9","03_ages_10":"10","03_ages_11":"11","03_ages_12":"12","03_ages_13":"13","03_ages_14":"14","03_ages_15":"15","03_ages_16":"16","03_ages_17":"17","03_ages_18":"18","04":"Yes","04_ages_1":"1","04_ages_2":"2","04_ages_3":"3","04_ages_4":"4","04_ages_5":"5","04_ages_6":"6","04_ages_7":"7","04_ages_8":"8","04_ages_9":"9","04_ages_10":"10","04_ages_11":"11","04_ages_12":"12","04_ages_13":"13","04_ages_14":"14","04_ages_15":"15","04_ages_16":"16","04_ages_17":"17","04_ages_18":"18"},"rt":82508.39999999106,"item_order":[0,1,2,3],"radio_events":[3717,21650.89999999106,37850.59999999404,41429.19999998808,53501.19999998808],"checkbox_events":[6462.29999999702,6799.79999999702,7103.29999999702,7452.0999999940395,7834.5999999940395,8172.699999988079,8937.89999999106,9275,9736.29999999702,10096.39999999106,10445.199999988079,11108.89999999106,11435.199999988079,11806.39999999106,12155.39999999106,12808,13403.699999988079,14011.5,23743.5,24126.09999999404,24462.39999999106,24856.79999999702,25206.09999999404,25566,26062.19999998808,27478.39999999106,27849.39999999106,28378.5,28760.89999999106,29109.79999999702,29796.19999998808,30144.89999999106,30515.89999999106,31067.5,32183.09999999404,32608.89999999106,42250.5,42577.09999999404,43285.59999999404,43870.89999999106,44185.5,45130.89999999106,45468.5,45817.29999999702,46188.29999999702,47100.59999999404,47775.09999999404,48303.5,49013.79999999702,49540.79999999702,49957.29999999702,50294.89999999106,50868.69999998808,51183.5,55155.19999998808,55481.59999999404,56315.5,56639.89999999106,57134.89999999106,57484,58046.39999999106,58360.89999999106,58700.29999999702,59430.5,66586.09999999404,67002.39999999106,67429.69999998808,69657.09999999404,78297.69999998808,78625.5],"key_events":[3717,6462.29999999702,6799.79999999702,7103.29999999702,7452.0999999940395,7834.5999999940395,8172.699999988079,8937.89999999106,9275,9736.29999999702,10096.39999999106,10445.199999988079,21650.89999999106,23001.09999999404,23743.5,24126.09999999404,24462.39999999106,24856.79999999702,25206.09999999404,25566,26062.19999998808,26859.5,27478.39999999106,27849.39999999106,28378.5,28760.89999999106,41429.19999998808,42250.5,42577.09999999404,42880.59999999404,43285.59999999404,43870.89999999106,44185.5,44511,45130.89999999106,45468.5,45817.29999999702,46188.29999999702,47100.59999999404,47775.09999999404,53501.19999998808,55155.19999998808,55481.59999999404,56315.5,56639.89999999106,57134.89999999106,57484,58046.39999999106,58360.89999999106,58700.29999999702,59430.5],"mouse_events":[11108.89999999106,11435.199999988079,11806.39999999106,12155.39999999106,12808,13403.699999988079,14011.5,29109.79999999702,29796.19999998808,30144.89999999106,30515.89999999106,31067.5,31462.69999998808,31720,32183.09999999404,32608.89999999106,37850.59999999404,48303.5,49013.79999999702,49540.79999999702,49957.29999999702,50294.89999999106,50868.69999998808,51183.5,66586.09999999404,67002.39999999106,67429.69999998808,69657.09999999404,78297.69999998808,78625.5,82505.5],"honeypot":0,"survey":"mace","page":9,"trial_type":"survey-mace","trial_index":17,"time_elapsed":568665,"internal_node_id":"0.0-17.0","task_version":"prescreen-v0.3","browser_interactions":0},{"responses":{"01":"No","02":"No","03":"Yes","03_ages_11":"11","03_ages_12":"12","03_ages_13":"13","03_ages_14":"14","03_ages_15":"15","03_ages_16":"16","03_ages_17":"17","03_ages_18":"18","04":"No","05":"Yes","05_ages_15":"15","05_ages_16":"16","05_ages_17":"17","05_ages_18":"18","06":"Yes","06_ages_17":"17","07":"Yes","07_ages_1":"1","07_ages_2":"2","07_ages_3":"3","07_ages_4":"4","07_ages_5":"5","07_ages_6":"6","07_ages_7":"7","07_ages_8":"8","07_ages_9":"9","07_ages_10":"10","07_ages_11":"11","07_ages_12":"12","07_ages_13":"13","07_ages_14":"14","07_ages_15":"15","07_ages_16":"16","07_ages_17":"17","07_ages_18":"18","08":"No"},"rt":61460,"item_order":[0,1,2,3,4,5,6,7],"radio_events":[3075.5,3784.2000000029802,5933,12109.70000000298,18376.09999999404,26881.59999999404,36152.09999999404,47817.89999999106],"checkbox_events":[7013,7327.5,7654.399999991059,8182.899999991059,8498.20000000298,8824.5,9454.09999999404,9737.39999999106,19501.20000000298,37682,38087.59999999404,38694.70000000298,39032.39999999106,39628.59999999404,40258.79999999702,51183,51531.89999999106,51880.70000000298,52240.29999999702,52656.79999999702,53523.20000000298,53860.39999999106,54445.59999999404,55019.59999999404,55424.70000000298,56099.70000000298,56786.29999999702,57078.29999999702,57426.09999999404,58248.39999999106,58607.70000000298,59350.79999999702,59643.59999999404],"key_events":[5933,7013,18376.09999999404,36152.09999999404,47817.89999999106,51183,51531.89999999106,51880.70000000298,56099.70000000298,56786.29999999702,57078.29999999702,57426.09999999404,57832.09999999404,58248.39999999106,58607.70000000298,59350.79999999702,59643.59999999404],"mouse_events":[3075.5,3784.2000000029802,7327.5,7654.399999991059,8182.899999991059,8498.20000000298,8824.5,9454.09999999404,9737.39999999106,12109.70000000298,19501.20000000298,26881.59999999404,37682,38087.59999999404,38424.39999999106,38694.70000000298,39032.39999999106,39358.09999999404,39628.59999999404,40258.79999999702,52240.29999999702,52656.79999999702,53218.29999999702,53523.20000000298,53860.39999999106,54445.59999999404,55019.59999999404,55424.70000000298,61455.09999999404],"honeypot":0,"survey":"mace","page":10,"trial_type":"survey-mace","trial_index":18,"time_elapsed":630128,"internal_node_id":"0.0-18.0","task_version":"prescreen-v0.3","browser_interactions":0,"instructed":0},{"rt":5323.9000000059605,"trial_type":"mental-health-alert","trial_index":19,"time_elapsed":635454,"internal_node_id":"0.0-19.0","task_version":"prescreen-v0.3","interactions":"[]"}]