[{"view_history":[{"page_index":0,"viewing_time":9698.200000047684},{"page_index":1,"viewing_time":7551.799999952316},{"page_index":2,"viewing_time":9054.300000071526},{"page_index":3,"viewing_time":3425.2999999523163}],"rt":29731,"trial_type":"instructions","trial_index":0,"time_elapsed":29773,"internal_node_id":"0.0-0.0","task_version":"prescreen-v0.3"},{"rt":42020.59999990463,"responses":{"age":"42","gender-categorical":"Male","gender-free-response":"","ethnicity":"Not Hispanic or Latino","race":["Black or African American"],"education":"High school"},"trial_type":"survey-demo","trial_index":1,"time_elapsed":71806,"internal_node_id":"0.0-1.0","task_version":"prescreen-v0.3"},{"responses":{"Q17":"2","Q03":"2","Q07":"1","Q18":"0","Q13":"0","Q14":"1","Q01":"2","Q02":"2","Q15":"1","Q09":"1","Q04":"2","Q16":"0","Q12":"2","Q11":"2","Q05":"1","Q08":"3","Q20":"0","Q10":"1","Q21":"3","Q19":"0","Q06":"2"},"rt":276215.7999999523,"item_order":[16,2,6,17,12,13,0,1,14,8,3,15,11,10,4,7,19,9,20,18,5],"radio_events":[23179.899999976158,28579.399999976158,47451.39999997616,96691.59999990463,102971.79999995232,109587,119187.89999997616,129155.09999990463,143484,159058.29999995232,169939.69999992847,186435.19999992847,199899.39999997616,208034.59999990463,219922.89999997616,230411.39999997616,238130.89999997616,246730.79999995232,253690.59999990463,264235.1999999285,274531.59999990463],"key_events":[],"mouse_events":[23179.899999976158,28579.399999976158,47451.39999997616,96691.59999990463,102971.79999995232,109587,119187.89999997616,129155.09999990463,142442.5,143484,159058.29999995232,169939.69999992847,184963.09999990463,186435.19999992847,199899.39999997616,208034.59999990463,219922.89999997616,230411.39999997616,237019.29999995232,238130.89999997616,246730.79999995232,253690.59999990463,264235.1999999285,274531.59999990463,276211.59999990463],"straightlining":0.38095238095238093,"zigzagging":0.5,"honeypot":0,"survey":"sns","trial_type":"survey-template","trial_index":2,"time_elapsed":348035,"internal_node_id":"0.0-2.0","task_version":"prescreen-v0.3","browser_interactions":0,"infrequency":0},{"responses":{"Q06":"3","Q10":"3","Q08":"3","Q01":"0","Q07":"2","Q04":"0","Q05":"3","Q03":"1","Q13":"0","Q09":"2","Q02":"0","Q12":"3","Q11":"3"},"rt":106578.10000002384,"item_order":[5,9,7,0,6,3,4,2,12,8,1,11,10],"radio_events":[11959.5,17383.800000071526,23904.100000023842,29895.5,39215.40000009537,52511.90000009537,58088.60000002384,72448.60000002384,79055.20000004768,85383.5,91407.60000002384,97535.20000004768,105431.90000009537],"key_events":[],"mouse_events":[11959.5,17383.800000071526,23904.100000023842,29895.5,39215.40000009537,52511.90000009537,58088.60000002384,72448.60000002384,79055.20000004768,85383.5,91407.60000002384,97535.20000004768,105431.90000009537,106575.5],"straightlining":0.46153846153846156,"zigzagging":0.3333333333333333,"honeypot":0,"survey":"bisbas","trial_type":"survey-template","trial_index":3,"time_elapsed":454623,"internal_node_id":"0.0-3.0","task_version":"prescreen-v0.3","browser_interactions":0,"infrequency":0},{"responses":{"Q01":"3","Q02":"2","Q03":"2"},"rt":45429.299999952316,"radio_events":[24261,34019.89999997616,44091.89999997616],"key_events":[],"mouse_events":[24261,34019.89999997616,44091.89999997616,45428],"survey":"map","page":1,"trial_type":"survey-map","trial_index":4,"time_elapsed":500060,"internal_node_id":"0.0-4.0","task_version":"prescreen-v0.3","browser_interactions":0},{"responses":{"Q04":"3","Q05":"3","Q06":"2"},"rt":24065.599999904633,"radio_events":[7785.699999928474,13984,23048],"key_events":[],"mouse_events":[7785.699999928474,13984,23048,24064.5],"survey":"map","page":2,"trial_type":"survey-map","trial_index":5,"time_elapsed":524132,"internal_node_id":"0.0-5.0","task_version":"prescreen-v0.3","browser_interactions":0},{"responses":{"Q07":"4","Q08":"2","Q09":"1"},"rt":27522.600000023842,"radio_events":[13505.399999976158,20457.300000071526,26545],"key_events":[],"mouse_events":[13505.399999976158,20457.300000071526,26545,27521.5],"survey":"map","page":3,"trial_type":"survey-map","trial_index":6,"time_elapsed":551660,"internal_node_id":"0.0-6.0","task_version":"prescreen-v0.3","browser_interactions":0},{"responses":{"Q10":"1","Q11":"3","Q12":"4","Q13":"4","Q16":"0","Q14":"3","Q15":"3"},"rt":77034.40000009537,"radio_events":[13209,32576.400000095367,41816.300000071526,52457,61408.10000002384,67888.20000004768,75408.40000009537],"key_events":[],"mouse_events":[13209,32576.400000095367,41816.300000071526,52457,60376.5,61408.10000002384,67888.20000004768,75408.40000009537,77032.40000009537],"survey":"map","page":4,"trial_type":"survey-map","trial_index":7,"time_elapsed":628701,"internal_node_id":"0.0-7.0","task_version":"prescreen-v0.3","browser_interactions":0,"infrequency":0},{"view_history":[{"page_index":0,"viewing_time":5280.099999904633},{"page_index":1,"viewing_time":8431.700000047684}],"rt":13713.399999976158,"trial_type":"instructions","trial_index":8,"time_elapsed":642419,"internal_node_id":"0.0-8.0","task_version":"prescreen-v0.3"},{"responses":{"01":"No","02":"No","03":"No","04":"No","05":"No","06":"No"},"rt":57935.300000071526,"item_order":[0,1,2,3,4,5],"radio_events":[22993,33160.10000002384,46128.60000002384,49608,52463.800000071526,56847.90000009537],"checkbox_events":[],"key_events":[],"mouse_events":[0.5,22993,33160.10000002384,46128.60000002384,49608,52463.800000071526,56847.90000009537,57929],"honeypot":0,"survey":"mace","page":1,"trial_type":"survey-mace","trial_index":9,"time_elapsed":700373,"internal_node_id":"0.0-9.0","task_version":"prescreen-v0.3","browser_interactions":0},{"responses":{"01":"No","02":"No","03":"Yes","03_ages_9":"9","03_ages_10":"10","04":"No","05":"No","06":"No","07":"No","08":"No"},"rt":75341.19999992847,"item_order":[0,1,2,3,4,5,6,7],"radio_events":[9957.099999904633,19108.5,26204.799999952316,50108.59999990463,59412.59999990463,67036.5,71460.5,74108.39999997616],"checkbox_events":[36005.199999928474,39884.799999952316],"key_events":[],"mouse_events":[9957.099999904633,19108.5,26204.799999952316,36005.199999928474,39884.799999952316,50108.59999990463,59412.59999990463,67036.5,71460.5,74108.39999997616,75333.19999992847],"honeypot":0,"survey":"mace","page":2,"trial_type":"survey-mace","trial_index":10,"time_elapsed":775726,"internal_node_id":"0.0-10.0","task_version":"prescreen-v0.3","browser_interactions":0},{"responses":{"01":"No","02":"No","03":"No","04":"No"},"rt":17232.700000047684,"item_order":[0,1,2,3],"radio_events":[8277.100000023842,11333,14364.800000071526,16156.900000095367],"checkbox_events":[],"key_events":[],"mouse_events":[8277.100000023842,11333,14364.800000071526,16156.900000095367,17228.800000071526],"honeypot":0,"survey":"mace","page":3,"trial_type":"survey-mace","trial_index":11,"time_elapsed":792968,"internal_node_id":"0.0-11.0","task_version":"prescreen-v0.3","browser_interactions":0},{"responses":{"01":"No","02":"No"},"rt":8719,"item_order":[0,1],"radio_events":[4284.600000023842,7805.200000047684],"checkbox_events":[],"key_events":[],"mouse_events":[4284.600000023842,7108.5,7805.200000047684,8716.600000023842],"honeypot":0,"survey":"mace","page":4,"trial_type":"survey-mace","trial_index":12,"time_elapsed":801693,"internal_node_id":"0.0-12.0","task_version":"prescreen-v0.3","browser_interactions":0},{"responses":{"01":"No","02":"No","03":"No","04":"No","05":"No"},"rt":23371.5,"item_order":[0,1,2,3,4],"radio_events":[7126.600000023842,12758.200000047684,16878,19958.399999976158,22094],"checkbox_events":[],"key_events":[],"mouse_events":[7126.600000023842,12758.200000047684,16878,19958.399999976158,22094,23366.299999952316],"honeypot":0,"survey":"mace","page":5,"trial_type":"survey-mace","trial_index":13,"time_elapsed":825073,"internal_node_id":"0.0-13.0","task_version":"prescreen-v0.3","browser_interactions":0},{"responses":{"01":"No","02":"No","03":"No","04":"No","05":"No"},"rt":19207.5,"item_order":[0,1,2,3,4],"radio_events":[5297.699999928474,9218.299999952316,12177.699999928474,15737.600000023842,18217.399999976158],"checkbox_events":[],"key_events":[],"mouse_events":[5297.699999928474,9218.299999952316,12177.699999928474,15737.600000023842,18217.399999976158,19202],"honeypot":0,"survey":"mace","page":6,"trial_type":"survey-mace","trial_index":14,"time_elapsed":844290,"internal_node_id":"0.0-14.0","task_version":"prescreen-v0.3","browser_interactions":0},{"responses":{"01":"No","02":"No","03":"No","04":"No","05":"No","06":"No","07":"No"},"rt":23543.5,"item_order":[0,1,2,3,4,5,6],"radio_events":[5711.300000071526,9664.5,12233.300000071526,16176.400000095367,18808.900000095367,21015.900000095367,22496.200000047684],"checkbox_events":[],"key_events":[],"mouse_events":[5711.300000071526,9664.5,12233.300000071526,16176.400000095367,18808.900000095367,21015.900000095367,22496.200000047684,23535.600000023842],"honeypot":0,"survey":"mace","page":7,"trial_type":"survey-mace","trial_index":15,"time_elapsed":867848,"internal_node_id":"0.0-15.0","task_version":"prescreen-v0.3","browser_interactions":0},{"responses":{"01":"No","02":"No","03":"No","04":"No"},"rt":34416.10000002384,"item_order":[0,1,2,3],"radio_events":[14765,21772.100000023842,28084.899999976158,33132.799999952316],"checkbox_events":[],"key_events":[],"mouse_events":[14765,21772.100000023842,28084.899999976158,33132.799999952316,34412.10000002384],"honeypot":0,"survey":"mace","page":8,"trial_type":"survey-mace","trial_index":16,"time_elapsed":902272,"internal_node_id":"0.0-16.0","task_version":"prescreen-v0.3","browser_interactions":0},{"responses":{"01":"Yes","01_ages_1":"1","01_ages_2":"2","01_ages_3":"3","01_ages_4":"4","01_ages_5":"5","01_ages_6":"6","01_ages_7":"7","01_ages_8":"8","01_ages_9":"9","01_ages_10":"10","01_ages_11":"11","01_ages_12":"12","01_ages_13":"13","01_ages_14":"14","01_ages_15":"15","01_ages_16":"16","01_ages_17":"17","01_ages_18":"18","02":"Yes","02_ages_1":"1","02_ages_2":"2","02_ages_3":"3","02_ages_4":"4","02_ages_5":"5","02_ages_6":"6","02_ages_7":"7","02_ages_8":"8","02_ages_9":"9","02_ages_10":"10","02_ages_11":"11","02_ages_12":"12","02_ages_13":"13","02_ages_14":"14","02_ages_15":"15","02_ages_16":"16","02_ages_17":"17","02_ages_18":"18","03":"Yes","03_ages_1":"1","03_ages_2":"2","03_ages_3":"3","03_ages_4":"4","03_ages_5":"5","03_ages_6":"6","03_ages_7":"7","03_ages_8":"8","03_ages_9":"9","03_ages_10":"10","03_ages_11":"11","03_ages_12":"12","03_ages_13":"13","03_ages_14":"14","03_ages_15":"15","03_ages_16":"16","03_ages_17":"17","03_ages_18":"18","04":"Yes","04_ages_1":"1","04_ages_2":"2","04_ages_3":"3","04_ages_4":"4","04_ages_5":"5","04_ages_6":"6","04_ages_7":"7","04_ages_8":"8","04_ages_9":"9","04_ages_10":"10","04_ages_11":"11","04_ages_12":"12","04_ages_13":"13","04_ages_14":"14","04_ages_15":"15","04_ages_16":"16","04_ages_17":"17","04_ages_18":"18"},"rt":156975.5,"item_order":[0,1,2,3],"radio_events":[16107.400000095367,70572,99851.70000004768,133195.60000002384],"checkbox_events":[32315.800000071526,33003.40000009537,33932.60000002384,35036.60000002384,36546.60000002384,37547.200000047684,38843.700000047684,40467.800000071526,42004,42804,43642.60000002384,46004.5,47052.5,47908.10000002384,48483.40000009537,50643.90000009537,52779.10000002384,54155.90000009537,73219.80000007153,73987.90000009537,75635.40000009537,76739,77363.70000004768,78107.70000004768,78988,80458.5,81179.20000004768,82330.80000007153,83979.20000004768,84619.60000002384,85787.5,86780.10000002384,88380,89579.30000007153,90715.70000004768,91843.10000002384,104067.90000009537,104979,105723.30000007153,106339.90000009537,106907.80000007153,108443.70000004768,109179,110499.10000002384,111691.90000009537,112252.10000002384,112987.20000004768,113611.90000009537,114147.90000009537,115010.90000009537,115739.10000002384,116507.60000002384,117907.30000007153,118738.70000004768,135162.60000002384,136907.40000009537,138300.20000004768,139762.90000009537,141083,142211.40000009537,143492.40000009537,143515.20000004768,145467.20000004768,146579.5,147484,148539.40000009537,149292.10000002384,149995.20000004768,150715.60000002384,151676,153035,153835.60000002384,154603.60000002384,155890.40000009537],"key_events":[],"mouse_events":[16107.400000095367,32315.800000071526,33003.40000009537,33932.60000002384,35036.60000002384,35564.700000047684,36546.60000002384,37547.200000047684,38843.700000047684,40467.800000071526,42004,42804,43642.60000002384,44523.300000071526,46004.5,47052.5,47908.10000002384,48483.40000009537,49643.300000071526,49754.700000047684,50643.90000009537,52779.10000002384,54155.90000009537,70572,73219.80000007153,73987.90000009537,75635.40000009537,76739,77363.70000004768,78107.70000004768,78988,80458.5,81179.20000004768,82330.80000007153,83979.20000004768,84619.60000002384,85787.5,86780.10000002384,88380,89579.30000007153,90715.70000004768,91843.10000002384,99851.70000004768,102555.70000004768,102579.30000007153,104067.90000009537,104979,105723.30000007153,106339.90000009537,106907.80000007153,108443.70000004768,109179,110499.10000002384,111691.90000009537,112252.10000002384,112987.20000004768,113611.90000009537,114147.90000009537,115010.90000009537,115739.10000002384,116507.60000002384,117907.30000007153,118738.70000004768,133195.60000002384,135162.60000002384,135995.20000004768,136907.40000009537,138300.20000004768,139762.90000009537,141083,142211.40000009537,143492.40000009537,143515.20000004768,144387.90000009537,145467.20000004768,146579.5,147484,148539.40000009537,149292.10000002384,149995.20000004768,150715.60000002384,151676,153035,153835.60000002384,154603.60000002384,155890.40000009537,156971.70000004768],"honeypot":0,"survey":"mace","page":9,"trial_type":"survey-mace","trial_index":17,"time_elapsed":1059256,"internal_node_id":"0.0-17.0","task_version":"prescreen-v0.3","browser_interactions":0},{"responses":{"01":"No","02":"No","03":"No","04":"No","05":"No","06":"Yes","06_ages_17":"17","07":"Yes","07_ages_1":"1","07_ages_2":"2","07_ages_3":"3","07_ages_4":"4","07_ages_5":"5","07_ages_6":"6","07_ages_7":"7","07_ages_8":"8","07_ages_9":"9","07_ages_10":"10","07_ages_11":"11","07_ages_12":"12","07_ages_13":"13","07_ages_14":"14","07_ages_15":"15","07_ages_16":"16","07_ages_17":"17","07_ages_18":"18","08":"Yes","08_ages_1":"1","08_ages_2":"2","08_ages_3":"3","08_ages_4":"4","08_ages_5":"5","08_ages_6":"6","08_ages_7":"7","08_ages_8":"8","08_ages_9":"9","08_ages_10":"10","08_ages_11":"11","08_ages_12":"12","08_ages_13":"13","08_ages_14":"14","08_ages_15":"15","08_ages_16":"16","08_ages_17":"17","08_ages_18":"18"},"rt":134513.40000009537,"item_order":[0,1,2,3,4,5,6,7],"radio_events":[11633.100000023842,21072.700000047684,28233.5,35249.800000071526,40497,63256.800000071526,77065.40000009537,77088.40000009537,106761.90000009537],"checkbox_events":[67585,81609.5,82513.60000002384,83441.5,84952.80000007153,86321.30000007153,87272.80000007153,88185.70000004768,89097.20000004768,89857,90585.5,92344.60000002384,92361,94160.60000002384,96393.20000004768,97273.60000002384,97952.90000009537,98849.5,99961.60000002384,100857.20000004768,101929,108912.60000002384,108928.70000004768,110161.60000002384,111105.80000007153,111953.30000007153,113082,113913.10000002384,114745.80000007153,116617.30000007153,117601.40000009537,118513.10000002384,119264.80000007153,120568.5,127296.5,128393.70000004768,129793.40000009537,130425.40000009537,131041.80000007153,131905.90000009537,133449.30000007153],"key_events":[],"mouse_events":[10665.300000071526,11633.100000023842,21072.700000047684,28233.5,35249.800000071526,40497,63256.800000071526,67585,77065.40000009537,77088.40000009537,81609.5,82513.60000002384,83441.5,84952.80000007153,86321.30000007153,87272.80000007153,88185.70000004768,89097.20000004768,89857,90585.5,92344.60000002384,92361,94160.60000002384,96393.20000004768,97273.60000002384,97952.90000009537,98849.5,99961.60000002384,100857.20000004768,101929,106761.90000009537,108912.60000002384,108928.70000004768,110161.60000002384,111105.80000007153,111953.30000007153,113082,113913.10000002384,114745.80000007153,116617.30000007153,117601.40000009537,118513.10000002384,119264.80000007153,120568.5,123881.10000002384,127296.5,128393.70000004768,129793.40000009537,130425.40000009537,131041.80000007153,131905.90000009537,133449.30000007153,134505.60000002384],"honeypot":0,"survey":"mace","page":10,"trial_type":"survey-mace","trial_index":18,"time_elapsed":1193782,"internal_node_id":"0.0-18.0","task_version":"prescreen-v0.3","browser_interactions":0,"instructed":0},{"rt":10303.199999928474,"trial_type":"mental-health-alert","trial_index":19,"time_elapsed":1204090,"internal_node_id":"0.0-19.0","task_version":"prescreen-v0.3","interactions":"[]"}]