[{"view_history":[{"page_index":0,"viewing_time":2649.100000023842},{"page_index":1,"viewing_time":3664.899999976158},{"page_index":2,"viewing_time":2679.5},{"page_index":3,"viewing_time":1000.6999999880791}],"rt":9995.399999976158,"trial_type":"instructions","trial_index":0,"time_elapsed":10018,"internal_node_id":"0.0-0.0","task_version":"prescreen-v0.3"},{"rt":12942.5,"responses":{"age":"27","gender-categorical":"Female","gender-free-response":"","ethnicity":"Not Hispanic or Latino","race":["White"],"education":"Master degree or higher"},"trial_type":"survey-demo","trial_index":1,"time_elapsed":22969,"internal_node_id":"0.0-1.0","task_version":"prescreen-v0.3"},{"responses":{"Q15":"2","Q12":"3","Q05":"2","Q01":"2","Q11":"2","Q17":"2","Q19":"2","Q10":"2","Q16":"2","Q14":"2","Q13":"2","Q07":"1","Q09":"3","Q04":"3","Q03":"2","Q06":"1","Q20":"1","Q02":"2","Q08":"2","Q21":"2","Q18":"2"},"rt":97850.5,"item_order":[14,11,4,0,10,16,18,9,15,13,12,6,8,3,2,5,19,1,7,20,17],"radio_events":[12263.199999988079,14637.600000023842,23832.899999976158,26908.600000023842,29947,31448.5,33499.10000002384,40503.60000002384,47204.30000001192,49379.39999997616,59578,60779.69999998808,64524.60000002384,69005.60000002384,73094.30000001192,75249,77735.5,82465.10000002384,88411.89999997616,90710.80000001192,93465.89999997616,96097],"key_events":[],"mouse_events":[12263.199999988079,14637.600000023842,23832.899999976158,26908.600000023842,29947,31448.5,33499.10000002384,39847.19999998808,40503.60000002384,47204.30000001192,49379.39999997616,50604.69999998808,52179.19999998808,59578,60779.69999998808,64524.60000002384,69005.60000002384,73094.30000001192,75249,77735.5,82465.10000002384,88411.89999997616,90710.80000001192,93465.89999997616,96097,97843.60000002384],"straightlining":0.7142857142857143,"zigzagging":0.3,"honeypot":0,"survey":"sns","trial_type":"survey-template","trial_index":2,"time_elapsed":120830,"internal_node_id":"0.0-2.0","task_version":"prescreen-v0.3","browser_interactions":0,"infrequency":0.5},{"responses":{"Q07":"2","Q06":"2","Q13":"0","Q01":"2","Q03":"3","Q11":"1","Q02":"3","Q08":"2","Q09":"1","Q05":"3","Q04":"3","Q10":"2","Q12":"1"},"rt":56765,"item_order":[6,5,12,0,2,10,1,7,8,4,3,9,11],"radio_events":[4268.100000023842,6278.600000023842,15060.700000047684,18533.700000047684,20143.600000023842,23727.900000035763,29482.400000035763,33399.60000002384,35710.60000002384,38361.80000001192,40616.80000001192,43383.90000003576,45627.10000002384,47209.200000047684,51903.200000047684,55719.80000001192],"key_events":[],"mouse_events":[4268.100000023842,6278.600000023842,15060.700000047684,18533.700000047684,20143.600000023842,22378.30000001192,23727.900000035763,29482.400000035763,33399.60000002384,35710.60000002384,38361.80000001192,40616.80000001192,43383.90000003576,45627.10000002384,47209.200000047684,51903.200000047684,55719.80000001192,56761.10000002384],"straightlining":0.38461538461538464,"zigzagging":0.4166666666666667,"honeypot":0,"survey":"bisbas","trial_type":"survey-template","trial_index":3,"time_elapsed":177603,"internal_node_id":"0.0-3.0","task_version":"prescreen-v0.3","browser_interactions":0,"infrequency":0},{"responses":{"Q01":"2","Q02":"2","Q03":"2"},"rt":12539.5,"radio_events":[4070.7999999523163,6962.5,11420.199999988079],"key_events":[],"mouse_events":[4070.7999999523163,6962.5,11420.199999988079,12537.599999964237],"survey":"map","page":1,"trial_type":"survey-map","trial_index":4,"time_elapsed":190148,"internal_node_id":"0.0-4.0","task_version":"prescreen-v0.3","browser_interactions":0},{"responses":{"Q04":"1","Q05":"1","Q06":"2"},"rt":12370.5,"radio_events":[3806.100000023842,9657.800000011921,11760.400000035763],"key_events":[],"mouse_events":[3806.100000023842,9657.800000011921,11760.400000035763,12369],"survey":"map","page":2,"trial_type":"survey-map","trial_index":5,"time_elapsed":202523,"internal_node_id":"0.0-5.0","task_version":"prescreen-v0.3","browser_interactions":0},{"responses":{"Q07":"2","Q08":"4","Q09":"1"},"rt":28510.80000001192,"radio_events":[18825,24171.69999998808,27523.399999976158],"key_events":[],"mouse_events":[18825,24171.69999998808,26794.80000001192,27523.399999976158,28509],"survey":"map","page":3,"trial_type":"survey-map","trial_index":6,"time_elapsed":231039,"internal_node_id":"0.0-6.0","task_version":"prescreen-v0.3","browser_interactions":0},{"responses":{"Q10":"1","Q11":"1","Q12":"3","Q13":"3","Q16":"0","Q14":"1","Q15":"1"},"rt":34407.69999998808,"radio_events":[8269.800000011921,12063,16280.300000011921,20934.600000023842,24863.80000001192,29257.400000035763,32929.80000001192],"key_events":[],"mouse_events":[8269.800000011921,12063,16280.300000011921,20934.600000023842,24863.80000001192,29257.400000035763,32929.80000001192,34404.19999998808],"survey":"map","page":4,"trial_type":"survey-map","trial_index":7,"time_elapsed":265454,"internal_node_id":"0.0-7.0","task_version":"prescreen-v0.3","browser_interactions":0,"infrequency":0},{"view_history":[{"page_index":0,"viewing_time":3175.5},{"page_index":1,"viewing_time":3808.199999988079}],"rt":6985,"trial_type":"instructions","trial_index":8,"time_elapsed":272441,"internal_node_id":"0.0-8.0","task_version":"prescreen-v0.3"},{"responses":{"01":"No","02":"No","03":"No","04":"No","05":"No","06":"No"},"rt":23759.799999952316,"item_order":[0,1,2,3,4,5],"radio_events":[7929.899999976158,13764.399999976158,16821.19999998808,18165.799999952316,19267.5,22839.799999952316],"checkbox_events":[],"key_events":[],"mouse_events":[0.09999996423721313,7929.899999976158,13764.399999976158,16821.19999998808,18165.799999952316,19267.5,22839.799999952316,23749.399999976158],"honeypot":0,"survey":"mace","page":1,"trial_type":"survey-mace","trial_index":9,"time_elapsed":296213,"internal_node_id":"0.0-9.0","task_version":"prescreen-v0.3","browser_interactions":0},{"responses":{"01":"No","02":"No","03":"Yes","03_ages_6":"6","03_ages_7":"7","03_ages_8":"8","03_ages_9":"9","04":"No","05":"No","06":"No","07":"No","08":"No"},"rt":29810.200000047684,"item_order":[0,1,2,3,4,5,6,7],"radio_events":[4710.200000047684,7485.800000011921,9144,19706.100000023842,23013.600000023842,26149.5,26846.600000023842,28099.80000001192],"checkbox_events":[13506.600000023842,14322.900000035763,14919.800000011921,16938.5],"key_events":[],"mouse_events":[4710.200000047684,6620.600000023842,7485.800000011921,9144,13506.600000023842,14322.900000035763,14919.800000011921,16938.5,19706.100000023842,23013.600000023842,24467.80000001192,26149.5,26846.600000023842,28099.80000001192,29798],"honeypot":0,"survey":"mace","page":2,"trial_type":"survey-mace","trial_index":10,"time_elapsed":326029,"internal_node_id":"0.0-10.0","task_version":"prescreen-v0.3","browser_interactions":0},{"responses":{"01":"No","02":"No","03":"No","04":"No"},"rt":11632.800000011921,"item_order":[0,1,2,3],"radio_events":[3407.199999988079,6198.399999976158,7584.199999988079,10059.399999976158],"checkbox_events":[],"key_events":[],"mouse_events":[3407.199999988079,6198.399999976158,7584.199999988079,8401.100000023842,8945.899999976158,10059.399999976158,10692.199999988079,11625.300000011921],"honeypot":0,"survey":"mace","page":3,"trial_type":"survey-mace","trial_index":11,"time_elapsed":337666,"internal_node_id":"0.0-11.0","task_version":"prescreen-v0.3","browser_interactions":0},{"responses":{"01":"No","02":"No"},"rt":7661.699999988079,"item_order":[0,1],"radio_events":[3885.599999964237,5359.099999964237],"checkbox_events":[],"key_events":[],"mouse_events":[3885.599999964237,5359.099999964237,7657.799999952316],"honeypot":0,"survey":"mace","page":4,"trial_type":"survey-mace","trial_index":12,"time_elapsed":345331,"internal_node_id":"0.0-12.0","task_version":"prescreen-v0.3","browser_interactions":0},{"responses":{"01":"No","02":"No","03":"No","04":"No","05":"No"},"rt":22025.69999998808,"item_order":[0,1,2,3,4],"radio_events":[15428.800000011921,16445.599999964237,18488.099999964237,20030.30000001192,21192],"checkbox_events":[],"key_events":[],"mouse_events":[15428.800000011921,16445.599999964237,17367.099999964237,18488.099999964237,19245.399999976158,20030.30000001192,21192,22016.69999998808],"honeypot":0,"survey":"mace","page":5,"trial_type":"survey-mace","trial_index":13,"time_elapsed":367363,"internal_node_id":"0.0-13.0","task_version":"prescreen-v0.3","browser_interactions":2},{"responses":{"01":"No","02":"No","03":"No","04":"No","05":"No"},"rt":8606.699999988079,"item_order":[0,1,2,3,4],"radio_events":[2105.800000011921,2938.5,6018.899999976158,6739.399999976158,7636.399999976158],"checkbox_events":[],"key_events":[],"mouse_events":[2105.800000011921,2938.5,3708,6018.899999976158,6739.399999976158,7636.399999976158,8132.800000011921,8597.800000011921],"honeypot":0,"survey":"mace","page":6,"trial_type":"survey-mace","trial_index":14,"time_elapsed":375974,"internal_node_id":"0.0-14.0","task_version":"prescreen-v0.3","browser_interactions":0},{"responses":{"01":"No","02":"No","03":"No","04":"No","05":"No","06":"No","07":"No"},"rt":23202.600000023842,"item_order":[0,1,2,3,4,5,6],"radio_events":[2626.300000011921,5269.600000023842,12657.900000035763,13795.300000011921,14896.800000011921,16178.200000047684,22438.100000023842],"checkbox_events":[],"key_events":[],"mouse_events":[2626.300000011921,3258.800000011921,5269.600000023842,12657.900000035763,13795.300000011921,14896.800000011921,16178.200000047684,22438.100000023842,23191.100000023842],"honeypot":0,"survey":"mace","page":7,"trial_type":"survey-mace","trial_index":15,"time_elapsed":399182,"internal_node_id":"0.0-15.0","task_version":"prescreen-v0.3","browser_interactions":0},{"responses":{"01":"No","02":"No","03":"No","04":"No"},"rt":18815.5,"item_order":[0,1,2,3],"radio_events":[11602.899999976158,12636.5,16344.800000011921,18223.19999998808],"checkbox_events":[],"key_events":[],"mouse_events":[11602.899999976158,12636.5,16344.800000011921,18223.19999998808,18807.899999976158],"honeypot":0,"survey":"mace","page":8,"trial_type":"survey-mace","trial_index":16,"time_elapsed":418002,"internal_node_id":"0.0-16.0","task_version":"prescreen-v0.3","browser_interactions":0},{"responses":{"01":"Yes","01_ages_1":"1","01_ages_2":"2","01_ages_3":"3","01_ages_4":"4","01_ages_5":"5","01_ages_6":"6","01_ages_7":"7","01_ages_8":"8","01_ages_9":"9","01_ages_10":"10","01_ages_11":"11","01_ages_12":"12","01_ages_13":"13","01_ages_14":"14","01_ages_15":"15","01_ages_16":"16","01_ages_17":"17","01_ages_18":"18","02":"Yes","02_ages_1":"1","02_ages_2":"2","02_ages_3":"3","02_ages_4":"4","02_ages_5":"5","02_ages_6":"6","02_ages_7":"7","02_ages_8":"8","02_ages_9":"9","02_ages_10":"10","02_ages_11":"11","02_ages_12":"12","02_ages_13":"13","02_ages_14":"14","02_ages_15":"15","02_ages_16":"16","02_ages_17":"17","02_ages_18":"18","03":"Yes","03_ages_1":"1","03_ages_2":"2","03_ages_3":"3","03_ages_4":"4","03_ages_5":"5","03_ages_6":"6","03_ages_7":"7","03_ages_8":"8","03_ages_9":"9","03_ages_10":"10","03_ages_11":"11","03_ages_12":"12","03_ages_13":"13","03_ages_14":"14","03_ages_15":"15","03_ages_16":"16","03_ages_17":"17","03_ages_18":"18","04":"Yes","04_ages_1":"1","04_ages_2":"2","04_ages_3":"3","04_ages_4":"4","04_ages_5":"5","04_ages_6":"6","04_ages_7":"7","04_ages_8":"8","04_ages_9":"9","04_ages_10":"10","04_ages_11":"11","04_ages_12":"12","04_ages_13":"13","04_ages_14":"14","04_ages_15":"15","04_ages_16":"16","04_ages_17":"17","04_ages_18":"18"},"rt":66730.30000001192,"item_order":[0,1,2,3],"radio_events":[4230.400000035763,21612.30000001192,36451.60000002384,52619.30000001192],"checkbox_events":[6556.900000035763,7109.699999988079,7670.400000035763,8223.100000023842,9872.900000035763,10353.600000023842,11066.800000011921,11603.300000011921,12068.100000023842,12564.800000011921,13061.100000023842,13585.699999988079,14058.699999988079,14539.400000035763,15116.100000023842,15756.800000011921,16269.300000011921,16942.400000035763,23799.30000001192,24223.400000035763,24824.600000023842,25305.19999998808,26086.100000023842,26694.5,27215.600000023842,27712.30000001192,29266,29786.900000035763,30688.100000023842,31312.900000035763,32562.5,32987.19999998808,33547.69999998808,34012.30000001192,34512.90000003576,34961.80000001192,37917.60000002384,38382.30000001192,38907.30000001192,40108.80000001192,40757.90000003576,41350.69999998808,42368.30000001192,42917.19999998808,43509.69999998808,44246.69999998808,44855.90000003576,46009.5,46458,47018.80000001192,47639.80000001192,48593.19999998808,49178.19999998808,49771.19999998808,54382.19999998808,54951.30000001192,55399.40000003576,55956.30000001192,56389.5,57037.69999998808,58063,58631.80000001192,59232.5,59769.19999998808,60390.40000003576,60927.10000002384,61407.5,62457.10000002384,63386.19999998808,63954.80000001192,64451.5,65032.40000003576],"key_events":[],"mouse_events":[4230.400000035763,6556.900000035763,7109.699999988079,7670.400000035763,8223.100000023842,8703.300000011921,9400.5,9872.900000035763,10353.600000023842,11066.800000011921,11603.300000011921,12068.100000023842,12564.800000011921,13061.100000023842,13585.699999988079,14058.699999988079,14539.400000035763,15116.100000023842,15756.800000011921,16269.300000011921,16942.400000035763,21612.30000001192,23799.30000001192,24223.400000035763,24824.600000023842,25305.19999998808,26086.100000023842,26694.5,27215.600000023842,27712.30000001192,28232.900000035763,29266,29786.900000035763,30688.100000023842,31312.900000035763,31825.30000001192,32562.5,32987.19999998808,33547.69999998808,34012.30000001192,34512.90000003576,34961.80000001192,36451.60000002384,37917.60000002384,38382.30000001192,38907.30000001192,39380,40108.80000001192,40757.90000003576,41350.69999998808,41759.10000002384,42368.30000001192,42917.19999998808,43509.69999998808,44246.69999998808,44855.90000003576,45448.80000001192,46009.5,46458,47018.80000001192,47639.80000001192,48112.40000003576,48593.19999998808,49178.19999998808,49771.19999998808,52619.30000001192,54382.19999998808,54951.30000001192,55399.40000003576,55956.30000001192,56389.5,57037.69999998808,57478.19999998808,58063,58631.80000001192,59232.5,59769.19999998808,60390.40000003576,60927.10000002384,61407.5,61968.5,62457.10000002384,62889.60000002384,63386.19999998808,63954.80000001192,64451.5,65032.40000003576,66723.19999998808],"honeypot":0,"survey":"mace","page":9,"trial_type":"survey-mace","trial_index":17,"time_elapsed":484739,"internal_node_id":"0.0-17.0","task_version":"prescreen-v0.3","browser_interactions":0},{"responses":{"01":"No","02":"No","03":"No","04":"No","05":"No","06":"Yes","06_ages_17":"17","07":"Yes","07_ages_1":"1","07_ages_2":"2","07_ages_3":"3","07_ages_4":"4","07_ages_5":"5","07_ages_6":"6","07_ages_7":"7","07_ages_8":"8","07_ages_9":"9","07_ages_10":"10","07_ages_11":"11","07_ages_12":"12","07_ages_13":"13","07_ages_14":"14","07_ages_15":"15","07_ages_16":"16","07_ages_17":"17","07_ages_18":"18","08":"Yes","08_ages_1":"1","08_ages_2":"2","08_ages_3":"3","08_ages_4":"4","08_ages_5":"5","08_ages_6":"6","08_ages_7":"7","08_ages_8":"8","08_ages_9":"9","08_ages_10":"10","08_ages_11":"11","08_ages_12":"12","08_ages_13":"13","08_ages_14":"14","08_ages_15":"15","08_ages_16":"16","08_ages_17":"17","08_ages_18":"18"},"rt":44532.200000047684,"item_order":[0,1,2,3,4,5,6,7],"radio_events":[2013.9000000357628,3067.400000035763,4861.900000035763,7837.900000035763,8759.200000047684,11975.300000011921,15352,29839.900000035763],"checkbox_events":[13585.700000047684,17779.200000047684,18227.80000001192,18780.600000023842,19369.400000035763,19962.80000001192,20499,20995.600000023842,21516.600000023842,22013.100000023842,22478.100000023842,23559.200000047684,24264.400000035763,24812.900000035763,25342.100000023842,25862.30000001192,26383.400000035763,27360.80000001192,28097.700000047684,31722.600000023842,32307.30000001192,32811.60000002384,33336.10000002384,33921.30000001192,34513.700000047684,35563,36180.200000047684,37237.40000003576,37910.40000003576,38691.5,39340.40000003576,39925.40000003576,40470.200000047684,41078.80000001192,41607.60000002384,42176.30000001192,42753.30000001192],"key_events":[],"mouse_events":[2013.9000000357628,3067.400000035763,4861.900000035763,5807.5,7837.900000035763,8759.200000047684,11142.300000011921,11975.300000011921,13585.700000047684,15352,17779.200000047684,18227.80000001192,18780.600000023842,19369.400000035763,19962.80000001192,20499,20995.600000023842,21516.600000023842,22013.100000023842,22478.100000023842,23014.600000023842,23559.200000047684,24264.400000035763,24812.900000035763,25342.100000023842,25862.30000001192,26383.400000035763,26832,27360.80000001192,28097.700000047684,29359.400000035763,29839.900000035763,31722.600000023842,32307.30000001192,32811.60000002384,33336.10000002384,33921.30000001192,34513.700000047684,34978.30000001192,35563,36180.200000047684,36765.10000002384,37237.40000003576,37910.40000003576,38691.5,39340.40000003576,39925.40000003576,40470.200000047684,41078.80000001192,41607.60000002384,42176.30000001192,42753.30000001192,44520.10000002384],"honeypot":0,"survey":"mace","page":10,"trial_type":"survey-mace","trial_index":18,"time_elapsed":529279,"internal_node_id":"0.0-18.0","task_version":"prescreen-v0.3","browser_interactions":0,"instructed":0},{"rt":4393.300000011921,"trial_type":"mental-health-alert","trial_index":19,"time_elapsed":533674,"internal_node_id":"0.0-19.0","task_version":"prescreen-v0.3","interactions":"[{\"event\":\"blur\",\"trial\":13,\"time\":349792},{\"event\":\"focus\",\"trial\":13,\"time\":353605}]"}]