[{"view_history":[{"page_index":0,"viewing_time":1760},{"page_index":1,"viewing_time":1606.800000011921},{"page_index":2,"viewing_time":137.7999999821186},{"page_index":3,"viewing_time":1013.0999999940395}],"rt":4519.199999988079,"trial_type":"instructions","trial_index":0,"time_elapsed":4538,"internal_node_id":"0.0-0.0","task_version":"prescreen-v0.3"},{"rt":16884.5,"responses":{"age":"29","gender-categorical":"Male","gender-free-response":"","ethnicity":"Not Hispanic or Latino","race":["White"],"education":"Master degree or higher"},"trial_type":"survey-demo","trial_index":1,"time_elapsed":21438,"internal_node_id":"0.0-1.0","task_version":"prescreen-v0.3"},{"responses":{"Q04":"2","Q02":"2","Q19":"1","Q08":"1","Q18":"1","Q14":"1","Q01":"2","Q17":"2","Q06":"1","Q12":"1","Q05":"2","Q10":"1","Q07":"1","Q15":"1","Q03":"1","Q21":"1","Q13":"1","Q11":"1","Q09":"1","Q20":"1","Q16":"1"},"rt":50688.19999998808,"item_order":[3,1,18,7,17,13,0,16,5,11,4,9,6,14,2,20,12,10,8,19,15],"radio_events":[5823.299999982119,9277.59999999404,11336.09999999404,13514.699999988079,17194.90000000596,19116.90000000596,20321.69999998808,22765.19999998808,23424.69999998808,25732.69999998808,26721.5,28466.19999998808,30041.59999999404,30675.59999999404,33924.90000000596,34848.40000000596,35940.69999998808,36753.09999999404,38118.09999999404,39258.59999999404,40321,48695.59999999404],"key_events":[],"mouse_events":[5823.299999982119,9277.59999999404,11336.09999999404,13514.699999988079,14196.5,15412.5,17194.90000000596,19116.90000000596,20321.69999998808,22765.19999998808,23424.69999998808,23885.90000000596,25732.69999998808,26721.5,28466.19999998808,29179.69999998808,30041.59999999404,30675.59999999404,32831.19999998808,33924.90000000596,34848.40000000596,35940.69999998808,36753.09999999404,38118.09999999404,39258.59999999404,40321,41601.09999999404,48695.59999999404,50682.79999998212],"straightlining":0.7619047619047619,"zigzagging":0.25,"honeypot":0,"survey":"sns","trial_type":"survey-template","trial_index":2,"time_elapsed":72140,"internal_node_id":"0.0-2.0","task_version":"prescreen-v0.3","browser_interactions":0,"infrequency":1},{"responses":{"Q05":"2","Q01":"1","Q12":"1","Q07":"1","Q09":"1","Q03":"1","Q04":"1","Q10":"1","Q02":"1","Q08":"1","Q06":"1","Q13":"1","Q11":"1"},"rt":29448.09999999404,"item_order":[4,0,11,6,8,2,3,9,1,7,5,12,10],"radio_events":[13994.09999999404,14781.59999999404,16760.40000000596,17497.90000000596,18149.09999999404,19218.69999998808,19997.69999998808,21012.90000000596,23501.90000000596,24153.69999998808,24748.80000001192,25914.09999999404,26766.69999998808,27361.80000001192],"key_events":[],"mouse_events":[13263.800000011921,13994.09999999404,14781.59999999404,16114.699999988079,16760.40000000596,17497.90000000596,18149.09999999404,19218.69999998808,19997.69999998808,21012.90000000596,23501.90000000596,24153.69999998808,24748.80000001192,25914.09999999404,26766.69999998808,27361.80000001192,29443.40000000596],"straightlining":0.9230769230769231,"zigzagging":0.08333333333333333,"honeypot":0,"survey":"bisbas","trial_type":"survey-template","trial_index":3,"time_elapsed":101597,"internal_node_id":"0.0-3.0","task_version":"prescreen-v0.3","browser_interactions":2,"infrequency":0.5},{"responses":{"Q01":"1","Q02":"1","Q03":"1"},"rt":7176.5,"radio_events":[2663.5999999940395,4402.199999988079,5551.799999982119],"key_events":[],"mouse_events":[2663.5999999940395,4402.199999988079,5551.799999982119,7174.299999982119],"survey":"map","page":1,"trial_type":"survey-map","trial_index":4,"time_elapsed":108786,"internal_node_id":"0.0-4.0","task_version":"prescreen-v0.3","browser_interactions":0},{"responses":{"Q04":"2","Q05":"1","Q06":"1"},"rt":4793.300000011921,"radio_events":[2096.5999999940395,2979.199999988079,3960.0999999940395],"key_events":[],"mouse_events":[2096.5999999940395,2979.199999988079,3960.0999999940395,4789.199999988079],"survey":"map","page":2,"trial_type":"survey-map","trial_index":5,"time_elapsed":113588,"internal_node_id":"0.0-5.0","task_version":"prescreen-v0.3","browser_interactions":0},{"responses":{"Q07":"2","Q08":"3","Q09":"2"},"rt":9439.09999999404,"radio_events":[2549.7999999821186,3948,7595.5,8641],"key_events":[],"mouse_events":[2549.7999999821186,3948,7595.5,8641,9437.199999988079],"survey":"map","page":3,"trial_type":"survey-map","trial_index":6,"time_elapsed":123038,"internal_node_id":"0.0-6.0","task_version":"prescreen-v0.3","browser_interactions":0},{"responses":{"Q10":"2","Q11":"2","Q12":"3","Q13":"2","Q16":"0","Q14":"2","Q15":"2"},"rt":22440.69999998808,"radio_events":[6449.699999988079,7550.199999988079,8764.799999982119,11304.799999982119,12221,14735.5,16994.40000000596,20120.19999998808,21519.5],"key_events":[],"mouse_events":[6449.699999988079,7550.199999988079,8764.799999982119,11304.799999982119,12221,14735.5,16994.40000000596,20120.19999998808,21519.5,22436.59999999404],"survey":"map","page":4,"trial_type":"survey-map","trial_index":7,"time_elapsed":145489,"internal_node_id":"0.0-7.0","task_version":"prescreen-v0.3","browser_interactions":2,"infrequency":0},{"view_history":[{"page_index":0,"viewing_time":20776.40000000596},{"page_index":1,"viewing_time":2845.5}],"rt":23623.69999998808,"trial_type":"instructions","trial_index":8,"time_elapsed":169118,"internal_node_id":"0.0-8.0","task_version":"prescreen-v0.3"},{"responses":{"01":"No","02":"No","03":"No","04":"No","05":"No","06":"No"},"rt":11041.300000011921,"item_order":[0,1,2,3,4,5],"radio_events":[3479.199999988079,4613.0999999940395,5560.699999988079,7544.9000000059605,8752.40000000596,10125.90000000596],"checkbox_events":[],"key_events":[],"mouse_events":[0.09999999403953552,3479.199999988079,4613.0999999940395,5560.699999988079,7544.9000000059605,8752.40000000596,10125.90000000596,11032.90000000596],"honeypot":0,"survey":"mace","page":1,"trial_type":"survey-mace","trial_index":9,"time_elapsed":180177,"internal_node_id":"0.0-9.0","task_version":"prescreen-v0.3","browser_interactions":0},{"responses":{"01":"No","02":"No","03":"Yes","03_ages_5":"5","03_ages_6":"6","03_ages_7":"7","03_ages_8":"8","03_ages_9":"9","03_ages_10":"10","04":"No","05":"No","06":"No","07":"No","08":"No"},"rt":23233.19999998808,"item_order":[0,1,2,3,4,5,6,7],"radio_events":[2834.0999999940395,3774.9000000059605,4875.799999982119,7462.5,17961.40000000596,18997.79999998212,20388.40000000596,21650.79999998212,22476.29999998212],"checkbox_events":[11643.90000000596,12647.90000000596,13387.199999988079,14102.90000000596,14938.59999999404,15919.09999999404],"key_events":[],"mouse_events":[2834.0999999940395,3774.9000000059605,4875.799999982119,7462.5,11643.90000000596,12124.59999999404,12647.90000000596,13387.199999988079,14102.90000000596,14938.59999999404,15919.09999999404,17961.40000000596,18997.79999998212,20388.40000000596,21650.79999998212,22476.29999998212,23218.69999998808],"honeypot":0,"survey":"mace","page":2,"trial_type":"survey-mace","trial_index":10,"time_elapsed":203422,"internal_node_id":"0.0-10.0","task_version":"prescreen-v0.3","browser_interactions":0},{"responses":{"01":"No","02":"No","03":"No","04":"No"},"rt":6161.799999982119,"item_order":[0,1,2,3],"radio_events":[1887.9000000059605,2868.699999988079,4106.799999982119,5022],"checkbox_events":[],"key_events":[],"mouse_events":[1887.9000000059605,2868.699999988079,4106.799999982119,5022,6155.5],"honeypot":0,"survey":"mace","page":3,"trial_type":"survey-mace","trial_index":11,"time_elapsed":209592,"internal_node_id":"0.0-11.0","task_version":"prescreen-v0.3","browser_interactions":0},{"responses":{"01":"No","02":"No"},"rt":4604.5,"item_order":[0,1],"radio_events":[2101.7000000178814,3596.300000011921],"checkbox_events":[],"key_events":[],"mouse_events":[2101.7000000178814,3596.300000011921,4599.9000000059605],"honeypot":0,"survey":"mace","page":4,"trial_type":"survey-mace","trial_index":12,"time_elapsed":214206,"internal_node_id":"0.0-12.0","task_version":"prescreen-v0.3","browser_interactions":0},{"responses":{"01":"No","02":"No","03":"No","04":"No","05":"No"},"rt":8634.100000023842,"item_order":[0,1,2,3,4],"radio_events":[1560,2747.600000023842,5295.200000017881,6108.5,7691.9000000059605],"checkbox_events":[],"key_events":[],"mouse_events":[1560,2747.600000023842,5295.200000017881,6108.5,7691.9000000059605,8624.700000017881],"honeypot":0,"survey":"mace","page":5,"trial_type":"survey-mace","trial_index":13,"time_elapsed":222850,"internal_node_id":"0.0-13.0","task_version":"prescreen-v0.3","browser_interactions":0},{"responses":{"01":"No","02":"No","03":"No","04":"No","05":"No"},"rt":7021.9000000059605,"item_order":[0,1,2,3,4],"radio_events":[1883.4000000059605,2575.4000000059605,3492,5276.199999988079,5926.199999988079],"checkbox_events":[],"key_events":[],"mouse_events":[1883.4000000059605,2575.4000000059605,3492,5276.199999988079,5926.199999988079,7012.5],"honeypot":0,"survey":"mace","page":6,"trial_type":"survey-mace","trial_index":14,"time_elapsed":229882,"internal_node_id":"0.0-14.0","task_version":"prescreen-v0.3","browser_interactions":0},{"responses":{"01":"No","02":"No","03":"No","04":"No","05":"No","06":"No","07":"No"},"rt":12091.299999982119,"item_order":[0,1,2,3,4,5,6],"radio_events":[5436.0999999940395,6210.9000000059605,7198.799999982119,8072.0999999940395,9128.299999982119,9785.09999999404,10846.40000000596],"checkbox_events":[],"key_events":[],"mouse_events":[5436.0999999940395,6210.9000000059605,7198.799999982119,8072.0999999940395,9128.299999982119,9785.09999999404,10846.40000000596,12078.699999988079],"honeypot":0,"survey":"mace","page":7,"trial_type":"survey-mace","trial_index":15,"time_elapsed":241983,"internal_node_id":"0.0-15.0","task_version":"prescreen-v0.3","browser_interactions":0},{"responses":{"01":"No","02":"No","03":"No","04":"No"},"rt":5765.5,"item_order":[0,1,2,3],"radio_events":[1863.699999988079,3019.7999999821186,4051.2999999821186,4846.899999976158],"checkbox_events":[],"key_events":[],"mouse_events":[1863.699999988079,3019.7999999821186,4051.2999999821186,4846.899999976158,5760.0999999940395],"honeypot":0,"survey":"mace","page":8,"trial_type":"survey-mace","trial_index":16,"time_elapsed":247758,"internal_node_id":"0.0-16.0","task_version":"prescreen-v0.3","browser_interactions":0},{"responses":{"01":"No","02":"No","03":"No","04":"No"},"rt":6901.5999999940395,"item_order":[0,1,2,3],"radio_events":[2271.0999999940395,3315.2999999821186,4624.9000000059605,5989.5],"checkbox_events":[],"key_events":[],"mouse_events":[2271.0999999940395,3315.2999999821186,4624.9000000059605,5989.5,6896.5999999940395],"honeypot":0,"survey":"mace","page":9,"trial_type":"survey-mace","trial_index":17,"time_elapsed":254667,"internal_node_id":"0.0-17.0","task_version":"prescreen-v0.3","browser_interactions":0},{"responses":{"01":"No","02":"No","03":"No","04":"No","05":"No","06":"Yes","06_ages_17":"17","07":"No","08":"No"},"rt":14786.399999976158,"item_order":[0,1,2,3,4,5,6,7],"radio_events":[1767.7999999821186,2371,3134.0999999940395,5159.399999976158,6141,9017.399999976158,12698.59999999404,13774.199999988079],"checkbox_events":[10610.399999976158],"key_events":[],"mouse_events":[1767.7999999821186,2371,3134.0999999940395,3866.199999988079,5159.399999976158,6141,9017.399999976158,10610.399999976158,12698.59999999404,13774.199999988079,14773.399999976158],"honeypot":0,"survey":"mace","page":10,"trial_type":"survey-mace","trial_index":18,"time_elapsed":269462,"internal_node_id":"0.0-18.0","task_version":"prescreen-v0.3","browser_interactions":0,"instructed":0},{"rt":2078,"trial_type":"mental-health-alert","trial_index":19,"time_elapsed":271547,"internal_node_id":"0.0-19.0","task_version":"prescreen-v0.3","interactions":"[{\"event\":\"blur\",\"trial\":3,\"time\":74636},{\"event\":\"focus\",\"trial\":3,\"time\":80363},{\"event\":\"blur\",\"trial\":7,\"time\":125784},{\"event\":\"focus\",\"trial\":7,\"time\":128153},{\"event\":\"blur\",\"trial\":8,\"time\":148377},{\"event\":\"focus\",\"trial\":8,\"time\":164827}]"}]