[{"view_history":[{"page_index":0,"viewing_time":1423.4000000059605},{"page_index":1,"viewing_time":3413.0999999940395},{"page_index":2,"viewing_time":2132.0999999940395},{"page_index":3,"viewing_time":956.4000000059605}],"rt":7926.5,"trial_type":"instructions","trial_index":0,"time_elapsed":7938,"internal_node_id":"0.0-0.0","task_version":"prescreen-v0.3"},{"rt":10830.70000000298,"responses":{"age":"19","gender-categorical":"Female","gender-free-response":"","ethnicity":"Not Hispanic or Latino","race":["White"],"education":"Some college"},"trial_type":"survey-demo","trial_index":1,"time_elapsed":18779,"internal_node_id":"0.0-1.0","task_version":"prescreen-v0.3"},{"responses":{"Q02":"2","Q12":"2","Q14":"2","Q04":"2","Q01":"2","Q03":"1","Q16":"1","Q10":"2","Q11":"3","Q13":"2","Q18":"2","Q21":"3","Q17":"1","Q15":"2","Q08":"2","Q19":"1","Q05":"3","Q07":"2","Q06":"1","Q09":"1","Q20":"0"},"rt":63808.79999999702,"item_order":[1,11,13,3,0,2,15,9,10,12,17,20,16,14,7,18,4,6,5,8,19],"radio_events":[4728.29999999702,6520.4000000059605,8627.10000000894,10053.5,11440,13765.60000000894,17162.40000000596,22903.10000000894,23737.60000000894,25172.29999999702,27733.40000000596,29339.10000000894,33018.90000000596,34421.70000000298,37007.40000000596,39122.90000000596,45358,49816.79999999702,53878,56447.5,60304.60000000894,62747.29999999702],"key_events":[],"mouse_events":[3601.6000000089407,4728.29999999702,6520.4000000059605,8627.10000000894,10053.5,11440,13765.60000000894,16417.70000000298,17162.40000000596,20324.40000000596,22903.10000000894,23737.60000000894,25172.29999999702,27733.40000000596,29339.10000000894,33018.90000000596,34421.70000000298,37007.40000000596,39122.90000000596,45358,49816.79999999702,53878,56447.5,60304.60000000894,62747.29999999702,63801.70000000298],"straightlining":0.5238095238095238,"zigzagging":0.5,"honeypot":0,"survey":"sns","trial_type":"survey-template","trial_index":2,"time_elapsed":82600,"internal_node_id":"0.0-2.0","task_version":"prescreen-v0.3","browser_interactions":0,"infrequency":0},{"responses":{"Q08":"2","Q01":"3","Q05":"2","Q13":"0","Q02":"3","Q06":"2","Q04":"3","Q09":"1","Q03":"3","Q10":"0","Q11":"1","Q07":"2","Q12":"1"},"rt":49215.80000001192,"item_order":[7,0,4,12,1,5,3,8,2,9,10,6,11],"radio_events":[8438.60000000894,10020.60000000894,16514.70000000298,18387.40000000596,22116.80000001192,25910.90000000596,26827.10000000894,31432.30000001192,34350.90000000596,39897.20000000298,43253.80000001192,45223.40000000596,46659.30000001192],"key_events":[],"mouse_events":[5561.5,7011.70000000298,8438.60000000894,10020.60000000894,15639.20000000298,16514.70000000298,17771.20000000298,18387.40000000596,22116.80000001192,23747.30000001192,25910.90000000596,26827.10000000894,31432.30000001192,34350.90000000596,39897.20000000298,43253.80000001192,45223.40000000596,46659.30000001192,49212.30000001192],"straightlining":0.3076923076923077,"zigzagging":0.75,"honeypot":0,"survey":"bisbas","trial_type":"survey-template","trial_index":3,"time_elapsed":131825,"internal_node_id":"0.0-3.0","task_version":"prescreen-v0.3","browser_interactions":0,"infrequency":0},{"responses":{"Q01":"3","Q02":"2","Q03":"2"},"rt":16929,"radio_events":[9482.79999999702,13763.89999999106,15993.39999999106],"key_events":[],"mouse_events":[9482.79999999702,13763.89999999106,15993.39999999106,16926.89999999106],"survey":"map","page":1,"trial_type":"survey-map","trial_index":4,"time_elapsed":148764,"internal_node_id":"0.0-4.0","task_version":"prescreen-v0.3","browser_interactions":0},{"responses":{"Q04":"2","Q05":"2","Q06":"2"},"rt":9307.60000000894,"radio_events":[5445.5,7108.29999999702,8477.79999999702],"key_events":[],"mouse_events":[5445.5,7108.29999999702,7934.79999999702,8477.79999999702,9305.70000000298],"survey":"map","page":2,"trial_type":"survey-map","trial_index":5,"time_elapsed":158079,"internal_node_id":"0.0-5.0","task_version":"prescreen-v0.3","browser_interactions":0},{"responses":{"Q07":"2","Q08":"3","Q09":"3"},"rt":9585.5,"radio_events":[3703.7999999970198,5958.5,7928.5],"key_events":[],"mouse_events":[3703.7999999970198,5958.5,7928.5,9583.5],"survey":"map","page":3,"trial_type":"survey-map","trial_index":6,"time_elapsed":167672,"internal_node_id":"0.0-6.0","task_version":"prescreen-v0.3","browser_interactions":0},{"responses":{"Q10":"2","Q11":"2","Q12":"1","Q13":"1","Q16":"0","Q14":"1","Q15":"1"},"rt":33620.39999999106,"radio_events":[3006.3999999910593,6951.0999999940395,10758.09999999404,14568.699999988079,19054.19999998808,32231.09999999404,32879.5],"key_events":[],"mouse_events":[3006.3999999910593,5966,6951.0999999940395,10758.09999999404,14568.699999988079,19054.19999998808,31651.29999999702,32231.09999999404,32879.5,33617.09999999404],"survey":"map","page":4,"trial_type":"survey-map","trial_index":7,"time_elapsed":201302,"internal_node_id":"0.0-7.0","task_version":"prescreen-v0.3","browser_interactions":0,"infrequency":0},{"view_history":[{"page_index":0,"viewing_time":1473.199999988079},{"page_index":1,"viewing_time":2465.2000000029802}],"rt":3939.3999999910593,"trial_type":"instructions","trial_index":8,"time_elapsed":205247,"internal_node_id":"0.0-8.0","task_version":"prescreen-v0.3"},{"responses":{"01":"No","02":"Yes","02_ages_7":"7","02_ages_8":"8","02_ages_9":"9","02_ages_10":"10","02_ages_11":"11","02_ages_12":"12","02_ages_13":"13","02_ages_14":"14","02_ages_15":"15","02_ages_16":"16","03":"No","04":"No","05":"No","06":"No"},"rt":46187.30000001192,"item_order":[0,1,2,3,4,5],"radio_events":[5908.300000011921,8040.100000008941,14097.300000011921,17560.10000000894,19602.30000001192,20340.90000000596,43720.60000000894],"checkbox_events":[23740.10000000894,24283,24785.30000001192,25369.10000000894,25872.10000000894,26488.5,27054.90000000596,27907.10000000894,28499.20000000298,29026.70000000298,29478.80000001192,29982.70000000298,32473.10000000894,38733.5,39860.30000001192,40370.20000000298],"key_events":[],"mouse_events":[0.4000000059604645,5908.300000011921,8040.100000008941,9117.800000011921,12750.60000000894,14097.300000011921,14948.300000011921,17560.10000000894,19602.30000001192,20340.90000000596,23740.10000000894,24283,24785.30000001192,25369.10000000894,25872.10000000894,26488.5,27054.90000000596,27907.10000000894,28499.20000000298,29026.70000000298,29478.80000001192,29982.70000000298,32473.10000000894,38733.5,39430.60000000894,39860.30000001192,40370.20000000298,43101.5,43720.60000000894,46178.10000000894],"honeypot":0,"survey":"mace","page":1,"trial_type":"survey-mace","trial_index":9,"time_elapsed":251449,"internal_node_id":"0.0-9.0","task_version":"prescreen-v0.3","browser_interactions":0},{"responses":{"01":"No","02":"No","03":"No","04":"No","05":"No","06":"No","07":"No","08":"No"},"rt":13583.70000000298,"item_order":[0,1,2,3,4,5,6,7],"radio_events":[3005.9000000059605,4018.2000000029802,5022.29999999702,5827.70000000298,7949.29999999702,10807.40000000596,11585.5,12567],"checkbox_events":[],"key_events":[],"mouse_events":[3005.9000000059605,4018.2000000029802,5022.29999999702,5827.70000000298,7949.29999999702,9007.20000000298,9842,10807.40000000596,11585.5,12567,13571.90000000596],"honeypot":0,"survey":"mace","page":2,"trial_type":"survey-mace","trial_index":10,"time_elapsed":265042,"internal_node_id":"0.0-10.0","task_version":"prescreen-v0.3","browser_interactions":0},{"responses":{"01":"No","02":"No","03":"No","04":"No"},"rt":9467.5,"item_order":[0,1,2,3],"radio_events":[3694.3999999910593,6086.699999988079,7125.0999999940395,8990.89999999106],"checkbox_events":[],"key_events":[],"mouse_events":[2867.199999988079,3694.3999999910593,5154.699999988079,6086.699999988079,7125.0999999940395,8990.89999999106,9460.699999988079],"honeypot":0,"survey":"mace","page":3,"trial_type":"survey-mace","trial_index":11,"time_elapsed":274517,"internal_node_id":"0.0-11.0","task_version":"prescreen-v0.3","browser_interactions":0},{"responses":{"01":"No","02":"No"},"rt":10199.5,"item_order":[0,1],"radio_events":[6628.20000000298,7666.29999999702],"checkbox_events":[],"key_events":[],"mouse_events":[6628.20000000298,7666.29999999702,10196.09999999404],"honeypot":0,"survey":"mace","page":4,"trial_type":"survey-mace","trial_index":12,"time_elapsed":284724,"internal_node_id":"0.0-12.0","task_version":"prescreen-v0.3","browser_interactions":0},{"responses":{"01":"No","02":"No","03":"No","04":"No","05":"No"},"rt":16900,"item_order":[0,1,2,3,4],"radio_events":[5665.29999999702,8041.29999999702,11659.59999999404,12649.09999999404,15204.70000000298],"checkbox_events":[],"key_events":[],"mouse_events":[5665.29999999702,7028.0999999940395,8041.29999999702,11659.59999999404,12649.09999999404,13590.59999999404,14653.09999999404,15204.70000000298,16891.89999999106],"honeypot":0,"survey":"mace","page":5,"trial_type":"survey-mace","trial_index":13,"time_elapsed":301637,"internal_node_id":"0.0-13.0","task_version":"prescreen-v0.3","browser_interactions":0},{"responses":{"01":"No","02":"Yes","02_ages_10":"10","02_ages_11":"11","02_ages_12":"12","02_ages_13":"13","02_ages_14":"14","03":"No","04":"Yes","04_ages_10":"10","04_ages_11":"11","04_ages_12":"12","04_ages_13":"13","05":"No"},"rt":27782.5,"item_order":[0,1,2,3,4],"radio_events":[5167.5,15607.90000000596,17393.20000000298,21984.59999999404,25845.59999999404],"checkbox_events":[6813.70000000298,7252.29999999702,7981.9000000059605,8492.79999999702,8996.5,9417.90000000596,13060.40000000596,18760.70000000298,19234,19882.79999999702,23526.5],"key_events":[],"mouse_events":[5167.5,6813.70000000298,7252.29999999702,7981.9000000059605,8492.79999999702,8996.5,9417.90000000596,13060.40000000596,15607.90000000596,17393.20000000298,18760.70000000298,19234,19882.79999999702,20491.40000000596,21984.59999999404,23526.5,25845.59999999404,27775.59999999404],"honeypot":0,"survey":"mace","page":6,"trial_type":"survey-mace","trial_index":14,"time_elapsed":329428,"internal_node_id":"0.0-14.0","task_version":"prescreen-v0.3","browser_interactions":0},{"responses":{"01":"No","02":"No","03":"No","04":"No","05":"No","06":"No","07":"No"},"rt":11833,"item_order":[0,1,2,3,4,5,6],"radio_events":[2103.1000000089407,3247.2999999970198,5137.100000008941,7514.79999999702,8350.10000000894,9169.29999999702,10922.10000000894],"checkbox_events":[],"key_events":[],"mouse_events":[2103.1000000089407,3247.2999999970198,5137.100000008941,6305.9000000059605,7514.79999999702,8350.10000000894,9169.29999999702,10922.10000000894,11822.29999999702],"honeypot":0,"survey":"mace","page":7,"trial_type":"survey-mace","trial_index":15,"time_elapsed":341270,"internal_node_id":"0.0-15.0","task_version":"prescreen-v0.3","browser_interactions":0},{"responses":{"01":"No","02":"No","03":"No","04":"No"},"rt":12764.60000000894,"item_order":[0,1,2,3],"radio_events":[6243.20000000298,7744.9000000059605,10462.10000000894,12060.10000000894],"checkbox_events":[],"key_events":[],"mouse_events":[3663.9000000059605,6243.20000000298,7744.9000000059605,10462.10000000894,12060.10000000894,12757.90000000596],"honeypot":0,"survey":"mace","page":8,"trial_type":"survey-mace","trial_index":16,"time_elapsed":354042,"internal_node_id":"0.0-16.0","task_version":"prescreen-v0.3","browser_interactions":0},{"responses":{"01":"Yes","01_ages_1":"1","01_ages_2":"2","01_ages_3":"3","01_ages_4":"4","01_ages_5":"5","01_ages_6":"6","01_ages_7":"7","01_ages_8":"8","01_ages_9":"9","01_ages_10":"10","01_ages_11":"11","01_ages_12":"12","01_ages_13":"13","01_ages_14":"14","01_ages_15":"15","01_ages_16":"16","01_ages_17":"17","01_ages_18":"18","02":"Yes","02_ages_1":"1","02_ages_2":"2","02_ages_3":"3","02_ages_4":"4","02_ages_5":"5","02_ages_6":"6","02_ages_7":"7","02_ages_8":"8","02_ages_9":"9","02_ages_10":"10","02_ages_11":"11","02_ages_12":"12","02_ages_13":"13","02_ages_14":"14","02_ages_15":"15","02_ages_16":"16","02_ages_17":"17","02_ages_18":"18","03":"Yes","03_ages_1":"1","03_ages_2":"2","03_ages_3":"3","03_ages_4":"4","03_ages_5":"5","03_ages_6":"6","03_ages_7":"7","03_ages_8":"8","03_ages_9":"9","03_ages_10":"10","03_ages_11":"11","03_ages_12":"12","03_ages_13":"13","03_ages_14":"14","03_ages_15":"15","03_ages_16":"16","03_ages_17":"17","03_ages_18":"18","04":"Yes","04_ages_1":"1","04_ages_2":"2","04_ages_3":"3","04_ages_4":"4","04_ages_5":"5","04_ages_6":"6","04_ages_7":"7","04_ages_8":"8","04_ages_9":"9","04_ages_10":"10","04_ages_11":"11","04_ages_12":"12","04_ages_13":"13","04_ages_14":"14","04_ages_15":"15","04_ages_16":"16","04_ages_17":"17","04_ages_18":"18"},"rt":69482.59999999404,"item_order":[0,1,2,3],"radio_events":[2775.7000000029802,23338,24863.29999999702,26169.29999999702],"checkbox_events":[5201.29999999702,5728.29999999702,6498.5999999940395,7139.20000000298,7812.70000000298,8753.20000000298,10794.59999999404,11378.29999999702,11937.59999999404,13073.29999999702,13641.09999999404,14241.40000000596,17586.70000000298,18373.59999999404,18884.70000000298,19387.29999999702,19882.70000000298,20458.20000000298,27206,27726.79999999702,30330.70000000298,31943.20000000298,33420.90000000596,34237.29999999702,34668.70000000298,35115.40000000596,36187,36695.29999999702,37872.79999999702,39278,39805.5,40380.79999999702,41249.29999999702,42231.59999999404,42683.20000000298,43329.20000000298,44806.09999999404,45462.79999999702,46064.90000000596,46663.79999999702,47604.20000000298,48642.59999999404,49437.79999999702,50057.29999999702,50827.70000000298,52069.59999999404,52579.40000000596,53366.40000000596,53918.29999999702,55029.40000000596,55694.20000000298,56262.20000000298,56801.09999999404,57373.09999999404,58331,58882.09999999404,59506.5,60139.29999999702,60690.90000000596,61459.79999999702,61946.5,62548.5,63075.70000000298,63651.40000000596,64106.29999999702,64713.90000000596,65395.59999999404,65881.90000000596,66474,66961.5,67472.40000000596,67966.29999999702],"key_events":[],"mouse_events":[2775.7000000029802,4493.79999999702,5201.29999999702,5728.29999999702,6498.5999999940395,7139.20000000298,7812.70000000298,8274.29999999702,8753.20000000298,9977.79999999702,10794.59999999404,11378.29999999702,11937.59999999404,12473.09999999404,13073.29999999702,13641.09999999404,14241.40000000596,14792.70000000298,15426.20000000298,16061,16580.79999999702,17027,17586.70000000298,18373.59999999404,18884.70000000298,19387.29999999702,19882.70000000298,20458.20000000298,22657,23338,24398.59999999404,24863.29999999702,26169.29999999702,27206,27726.79999999702,30330.70000000298,31180.90000000596,31943.20000000298,33420.90000000596,34237.29999999702,34668.70000000298,35115.40000000596,35691,36187,36695.29999999702,37872.79999999702,38482.90000000596,39278,39805.5,40380.79999999702,41249.29999999702,41711.20000000298,42231.59999999404,42683.20000000298,43329.20000000298,44806.09999999404,45462.79999999702,46064.90000000596,46663.79999999702,47604.20000000298,48642.59999999404,49437.79999999702,50057.29999999702,50827.70000000298,51509.20000000298,52069.59999999404,52579.40000000596,53366.40000000596,53918.29999999702,55029.40000000596,55694.20000000298,56262.20000000298,56801.09999999404,57373.09999999404,58331,58882.09999999404,59506.5,60139.29999999702,60690.90000000596,61459.79999999702,61946.5,62548.5,63075.70000000298,63651.40000000596,64106.29999999702,64713.90000000596,65395.59999999404,65881.90000000596,66474,66961.5,67472.40000000596,67966.29999999702,69475.59999999404],"honeypot":0,"survey":"mace","page":9,"trial_type":"survey-mace","trial_index":17,"time_elapsed":423533,"internal_node_id":"0.0-17.0","task_version":"prescreen-v0.3","browser_interactions":0},{"responses":{"01":"No","02":"No","03":"No","04":"No","05":"Yes","05_ages_13":"13","05_ages_14":"14","05_ages_15":"15","05_ages_16":"16","05_ages_17":"17","05_ages_18":"18","06":"Yes","06_ages_17":"17","07":"Yes","07_ages_1":"1","07_ages_2":"2","07_ages_3":"3","07_ages_4":"4","07_ages_5":"5","07_ages_6":"6","07_ages_7":"7","07_ages_8":"8","07_ages_9":"9","07_ages_10":"10","07_ages_11":"11","07_ages_12":"12","07_ages_13":"13","07_ages_14":"14","07_ages_15":"15","07_ages_16":"16","07_ages_17":"17","07_ages_18":"18","08":"Yes","08_ages_1":"1","08_ages_2":"2","08_ages_3":"3","08_ages_4":"4","08_ages_5":"5","08_ages_6":"6","08_ages_7":"7","08_ages_8":"8","08_ages_9":"9","08_ages_10":"10","08_ages_11":"11","08_ages_12":"12","08_ages_13":"13","08_ages_14":"14","08_ages_15":"15","08_ages_16":"16","08_ages_17":"17","08_ages_18":"18"},"rt":56579.59999999404,"item_order":[0,1,2,3,4,5,6,7],"radio_events":[2441.2000000029802,3714.7000000029802,4720.79999999702,5540.5999999940395,7827.70000000298,14535.89999999106,26775.70000000298,41724.20000000298],"checkbox_events":[9303.79999999702,17917.89999999106,18502.20000000298,19216.70000000298,19848.70000000298,20489.59999999404,21081.59999999404,21566.89999999106,22566,29298.59999999404,29809.59999999404,30490.5,31033.79999999702,31691.39999999106,32250.20000000298,32671.89999999106,33329.5,33896.79999999702,34773.20000000298,35308.20000000298,35891.89999999106,36427.79999999702,37019.79999999702,37879.89999999106,38463.20000000298,39477.5,40871.89999999106,43059.29999999702,43593.89999999106,44259.09999999404,45516.5,46489.59999999404,47162.89999999106,47926,48582.39999999106,49142.09999999404,49912.39999999106,50561.5,51242.39999999106,51915.5,52678.89999999106,53254.59999999404,53968.59999999404,54682.29999999702,55983.29999999702],"key_events":[],"mouse_events":[2441.2000000029802,3714.7000000029802,4720.79999999702,5540.5999999940395,7827.70000000298,9303.79999999702,14535.89999999106,17917.89999999106,18502.20000000298,19216.70000000298,19848.70000000298,20489.59999999404,21081.59999999404,21566.89999999106,22566,26775.70000000298,28641.59999999404,29298.59999999404,29809.59999999404,30490.5,31033.79999999702,31691.39999999106,32250.20000000298,32671.89999999106,33329.5,33896.79999999702,34773.20000000298,35308.20000000298,35891.89999999106,36427.79999999702,37019.79999999702,37879.89999999106,38463.20000000298,39477.5,40231.89999999106,40871.89999999106,41724.20000000298,43059.29999999702,43593.89999999106,44259.09999999404,44923.29999999702,45516.5,46489.59999999404,47162.89999999106,47926,48582.39999999106,49142.09999999404,49912.39999999106,50561.5,51242.39999999106,51915.5,52678.89999999106,53254.59999999404,53968.59999999404,54682.29999999702,55983.29999999702,56567.89999999106],"honeypot":0,"survey":"mace","page":10,"trial_type":"survey-mace","trial_index":18,"time_elapsed":480122,"internal_node_id":"0.0-18.0","task_version":"prescreen-v0.3","browser_interactions":0,"instructed":0},{"rt":14818.79999999702,"trial_type":"mental-health-alert","trial_index":19,"time_elapsed":494947,"internal_node_id":"0.0-19.0","task_version":"prescreen-v0.3","interactions":"[{\"event\":\"blur\",\"trial\":19,\"time\":481470},{\"event\":\"focus\",\"trial\":19,\"time\":489021}]"}]