[{"view_history":[{"page_index":0,"viewing_time":2674.699999988079},{"page_index":1,"viewing_time":3071.9000000059605},{"page_index":2,"viewing_time":3891.9000000059605},{"page_index":3,"viewing_time":3115.5999999940395}],"rt":12754.89999999106,"trial_type":"instructions","trial_index":0,"time_elapsed":12766,"internal_node_id":"0.0-0.0","task_version":"prescreen-v0.3"},{"rt":16732.70000000298,"responses":{"age":"34","gender-categorical":"Male","gender-free-response":"","ethnicity":"Hispanic or Latino","race":["White"],"education":"Some college","siblings":"3"},"trial_type":"survey-demo","trial_index":1,"time_elapsed":29504,"internal_node_id":"0.0-1.0","task_version":"prescreen-v0.3"},{"responses":{"Q15":"2","Q09":"2","Q06":"1","Q10":"2","Q11":"3","Q03":"3","Q02":"3","Q05":"2","Q18":"2","Q08":"3","Q04":"3","Q12":"1","Q20":"0","Q21":"2","Q16":"3","Q19":"3","Q13":"3","Q01":"2","Q07":"0","Q14":"2","Q17":"2"},"rt":89120.29999999702,"item_order":[14,8,5,9,10,2,1,4,17,7,3,11,19,20,15,18,12,0,6,13,16],"radio_events":[5618.4000000059605,5867.5,9462.90000000596,14191.20000000298,16339.09999999404,19054.79999999702,21314.70000000298,22306.40000000596,27671,30898.90000000596,33667,35750.79999999702,43574.5,44818.90000000596,47862.90000000596,53230.90000000596,58715.5,62642.90000000596,65794.79999999702,73778.70000000298,78554.90000000596,79338.90000000596,88238.40000000596],"key_events":[],"mouse_events":[5091.0999999940395,5618.4000000059605,5867.5,9462.90000000596,14191.20000000298,16339.09999999404,19054.79999999702,21314.70000000298,22306.40000000596,27671,30898.90000000596,33667,35750.79999999702,41066.70000000298,43574.5,44818.90000000596,47862.90000000596,53230.90000000596,58715.5,62642.90000000596,65794.79999999702,67470.79999999702,73778.70000000298,75743,76206.79999999702,77978.40000000596,78554.90000000596,79338.90000000596,80174.79999999702,88238.40000000596,89118.70000000298],"straightlining":0.42857142857142855,"zigzagging":0.4,"honeypot":0,"survey":"sns","trial_type":"survey-template","trial_index":2,"time_elapsed":118628,"internal_node_id":"0.0-2.0","task_version":"prescreen-v0.3","browser_interactions":0,"infrequency":0.5},{"responses":{"Q07":"2","Q08":"1","Q12":"3","Q03":"1","Q05":"1","Q01":"3","Q04":"3","Q02":"1","Q06":"2","Q09":"3","Q10":"3","Q11":"3","Q13":"0"},"rt":60836.09999999404,"item_order":[6,7,11,2,4,0,3,1,5,8,9,10,12],"radio_events":[7210.79999999702,21291.59999999404,22010.59999999404,24287.20000000298,27574.59999999404,30702.5,33519,38006.89999999106,42651.20000000298,48727.09999999404,51039,53571.09999999404,57110.89999999106,59187.70000000298],"key_events":[],"mouse_events":[4542.70000000298,6019,6514.899999991059,7210.79999999702,18671.09999999404,21291.59999999404,22010.59999999404,24287.20000000298,27574.59999999404,30222.79999999702,30702.5,33519,36866.5,37490.70000000298,38006.89999999106,42651.20000000298,48727.09999999404,51039,53571.09999999404,57110.89999999106,59187.70000000298,60835.20000000298],"straightlining":0.46153846153846156,"zigzagging":0.3333333333333333,"honeypot":0,"survey":"bisbas","trial_type":"survey-template","trial_index":3,"time_elapsed":179467,"internal_node_id":"0.0-3.0","task_version":"prescreen-v0.3","browser_interactions":0,"infrequency":0},{"responses":{"Q01":"1","Q02":"1","Q03":"1"},"rt":22040.5,"radio_events":[4020.2000000029802,5411.9000000059605,9084.10000000894,21232.20000000298],"key_events":[],"mouse_events":[4020.2000000029802,4947.600000008941,5411.9000000059605,9084.10000000894,21232.20000000298,22040],"survey":"map","page":1,"trial_type":"survey-map","trial_index":4,"time_elapsed":201511,"internal_node_id":"0.0-4.0","task_version":"prescreen-v0.3","browser_interactions":0},{"responses":{"Q04":"1","Q05":"1","Q06":"1"},"rt":21309.20000000298,"radio_events":[16588.70000000298,18224.70000000298,20221.10000000894],"key_events":[],"mouse_events":[15949.300000011921,16588.70000000298,18224.70000000298,20221.10000000894,21308.70000000298],"survey":"map","page":2,"trial_type":"survey-map","trial_index":5,"time_elapsed":222822,"internal_node_id":"0.0-5.0","task_version":"prescreen-v0.3","browser_interactions":0},{"responses":{"Q07":"2","Q08":"0","Q09":"1"},"rt":16158.39999999106,"radio_events":[7866,12145.70000000298,14862],"key_events":[],"mouse_events":[7033.399999991059,7866,12145.70000000298,14214.09999999404,14862,16158],"survey":"map","page":3,"trial_type":"survey-map","trial_index":6,"time_elapsed":238982,"internal_node_id":"0.0-6.0","task_version":"prescreen-v0.3","browser_interactions":0},{"responses":{"Q10":"1","Q11":"0","Q12":"1","Q13":"1","Q16":"0","Q14":"0","Q15":"1"},"rt":28342.10000000894,"radio_events":[3281.6000000089407,5377.20000000298,7805.5,11585.70000000298,14893.40000000596,17825.5,21793.60000000894,27445.20000000298],"key_events":[],"mouse_events":[3281.6000000089407,5377.20000000298,7221.70000000298,7805.5,11585.70000000298,14893.40000000596,17825.5,21313.60000000894,21793.60000000894,27445.20000000298,28341.20000000298],"survey":"map","page":4,"trial_type":"survey-map","trial_index":7,"time_elapsed":267326,"internal_node_id":"0.0-7.0","task_version":"prescreen-v0.3","browser_interactions":0,"infrequency":0},{"view_history":[{"page_index":0,"viewing_time":3010},{"page_index":1,"viewing_time":2851.8999999910593}],"rt":5862.70000000298,"trial_type":"instructions","trial_index":8,"time_elapsed":273190,"internal_node_id":"0.0-8.0","task_version":"prescreen-v0.3"},{"responses":{"01":"No","02":"No","03":"No","04":"No","05":"No","06":"No"},"rt":22016.39999999106,"item_order":[0,1,2,3,4,5],"radio_events":[5418.29999999702,8110.20000000298,11242.09999999404,13953.89999999106,17541.70000000298,20266],"checkbox_events":[],"key_events":[],"mouse_events":[0.5,5418.29999999702,8110.20000000298,11242.09999999404,13953.89999999106,16353.5,17541.70000000298,19454,20266,22014.29999999702],"honeypot":0,"survey":"mace","page":1,"trial_type":"survey-mace","trial_index":9,"time_elapsed":295213,"internal_node_id":"0.0-9.0","task_version":"prescreen-v0.3","browser_interactions":0},{"responses":{"01":"Yes","01_ages_7":"7","01_ages_8":"8","01_ages_9":"9","01_ages_10":"10","01_ages_11":"11","01_ages_12":"12","02":"No","03":"Yes","03_ages_7":"7","03_ages_8":"8","03_ages_9":"9","03_ages_10":"10","03_ages_11":"11","04":"No","05":"Yes","05_ages_7":"7","05_ages_8":"8","05_ages_9":"9","05_ages_10":"10","06":"No","07":"No","08":"No"},"rt":42672.30000001192,"item_order":[0,1,2,3,4,5,6,7],"radio_events":[5289.9000000059605,16162.10000000894,17857.5,25373.60000000894,28966,36461.70000000298,38685.30000001192,41481.40000000596],"checkbox_events":[9934.20000000298,10622.20000000298,11085.800000011921,11533.70000000298,12014,12514.20000000298,19642.10000000894,20150,20805.90000000596,21498.10000000894,22058.10000000894,30077.90000000596,30637.90000000596,31238,31821.90000000596],"key_events":[],"mouse_events":[5289.9000000059605,9934.20000000298,10622.20000000298,11085.800000011921,11533.70000000298,12014,12514.20000000298,16162.10000000894,17857.5,19642.10000000894,20150,20805.90000000596,21498.10000000894,22058.10000000894,25373.60000000894,28966,30077.90000000596,30637.90000000596,31238,31821.90000000596,33570.20000000298,35665.60000000894,36461.70000000298,38685.30000001192,41481.40000000596,42669.70000000298],"honeypot":0,"survey":"mace","page":2,"trial_type":"survey-mace","trial_index":10,"time_elapsed":337888,"internal_node_id":"0.0-10.0","task_version":"prescreen-v0.3","browser_interactions":0},{"responses":{"01":"No","02":"No","03":"No","04":"No"},"rt":7231.79999999702,"item_order":[0,1,2,3],"radio_events":[3142.2999999970198,4278.699999988079,5382.29999999702,6622.699999988079],"checkbox_events":[],"key_events":[],"mouse_events":[3142.2999999970198,4278.699999988079,5382.29999999702,6622.699999988079,7230.399999991059],"honeypot":0,"survey":"mace","page":3,"trial_type":"survey-mace","trial_index":11,"time_elapsed":345122,"internal_node_id":"0.0-11.0","task_version":"prescreen-v0.3","browser_interactions":0},{"responses":{"01":"No","02":"No"},"rt":4629.9000000059605,"item_order":[0,1],"radio_events":[2337.0999999940395,3825],"checkbox_events":[],"key_events":[],"mouse_events":[2337.0999999940395,3825,4629],"honeypot":0,"survey":"mace","page":4,"trial_type":"survey-mace","trial_index":12,"time_elapsed":349754,"internal_node_id":"0.0-12.0","task_version":"prescreen-v0.3","browser_interactions":0},{"responses":{"01":"No","02":"No","03":"No","04":"No","05":"No"},"rt":19066.30000001192,"item_order":[0,1,2,3,4],"radio_events":[4616.5,9188.10000000894,10372.40000000596,15980.5,17480.30000001192],"checkbox_events":[],"key_events":[],"mouse_events":[4616.5,9188.10000000894,10372.40000000596,15980.5,17480.30000001192,18328.70000000298,19064.5],"honeypot":0,"survey":"mace","page":5,"trial_type":"survey-mace","trial_index":13,"time_elapsed":368823,"internal_node_id":"0.0-13.0","task_version":"prescreen-v0.3","browser_interactions":0},{"responses":{"01":"Yes","01_ages_7":"7","01_ages_8":"8","01_ages_9":"9","01_ages_10":"10","02":"Yes","02_ages_7":"7","02_ages_8":"8","02_ages_9":"9","02_ages_10":"10","03":"No","04":"No","05":"No"},"rt":28485.30000001192,"item_order":[0,1,2,3,4],"radio_events":[9675.5,18931.5,24847.60000000894,25695.40000000596,27794.70000000298],"checkbox_events":[12303.40000000596,12783.40000000596,13904.10000000894,14567,20495,21155.40000000596,21847.30000001192,22291.10000000894],"key_events":[],"mouse_events":[9259.5,9675.5,11839.60000000894,12303.40000000596,12783.40000000596,13379.300000011921,13904.10000000894,14567,18931.5,19935.40000000596,20495,21155.40000000596,21847.30000001192,22291.10000000894,24847.60000000894,25695.40000000596,27267.30000001192,27794.70000000298,28483.60000000894],"honeypot":0,"survey":"mace","page":6,"trial_type":"survey-mace","trial_index":14,"time_elapsed":397312,"internal_node_id":"0.0-14.0","task_version":"prescreen-v0.3","browser_interactions":0},{"responses":{"01":"No","02":"No","03":"No","04":"No","05":"No","06":"No","07":"No"},"rt":11597.09999999404,"item_order":[0,1,2,3,4,5,6],"radio_events":[2790.5,4174.699999988079,5706.79999999702,7506.79999999702,8390.89999999106,9335.09999999404,10987.199999988079],"checkbox_events":[],"key_events":[],"mouse_events":[2790.5,4174.699999988079,5706.79999999702,7506.79999999702,8390.89999999106,9335.09999999404,10987.199999988079,11594.699999988079],"honeypot":0,"survey":"mace","page":7,"trial_type":"survey-mace","trial_index":15,"time_elapsed":408912,"internal_node_id":"0.0-15.0","task_version":"prescreen-v0.3","browser_interactions":0},{"responses":{"01":"No","02":"No","03":"No","04":"No"},"rt":8481.09999999404,"item_order":[0,1,2,3],"radio_events":[3855,5071.4000000059605,6538.79999999702,7611.4000000059605],"checkbox_events":[],"key_events":[],"mouse_events":[3855,5071.4000000059605,6538.79999999702,7611.4000000059605,8479.59999999404],"honeypot":0,"survey":"mace","page":8,"trial_type":"survey-mace","trial_index":16,"time_elapsed":417396,"internal_node_id":"0.0-16.0","task_version":"prescreen-v0.3","browser_interactions":0},{"responses":{"01":"Yes","01_ages_1":"1","01_ages_2":"2","01_ages_3":"3","01_ages_4":"4","01_ages_5":"5","01_ages_6":"6","01_ages_7":"7","01_ages_8":"8","01_ages_9":"9","01_ages_10":"10","01_ages_11":"11","01_ages_12":"12","02":"Yes","02_ages_7":"7","02_ages_8":"8","02_ages_9":"9","02_ages_10":"10","02_ages_11":"11","02_ages_12":"12","03":"Yes","03_ages_1":"1","03_ages_2":"2","03_ages_3":"3","03_ages_4":"4","03_ages_5":"5","03_ages_6":"6","03_ages_7":"7","03_ages_8":"8","03_ages_9":"9","03_ages_10":"10","03_ages_11":"11","03_ages_12":"12","04":"Yes","04_ages_1":"1","04_ages_2":"2","04_ages_3":"3","04_ages_4":"4","04_ages_5":"5","04_ages_6":"6","04_ages_7":"7","04_ages_8":"8","04_ages_9":"9","04_ages_10":"10","04_ages_11":"11","04_ages_12":"12"},"rt":46377.30000001192,"item_order":[0,1,2,3],"radio_events":[8951.20000000298,20435.80000001192,26791.90000000596,38059.80000001192],"checkbox_events":[11636,12195.5,12787.90000000596,13983.90000000596,14579.90000000596,15287.90000000596,15883.5,16311.300000011921,17215.70000000298,17715.80000001192,18275.80000001192,18835.10000000894,21319.80000001192,21767.40000000596,22271.70000000298,22695.90000000596,23096.10000000894,23555.70000000298,27983.90000000596,28635.70000000298,30199.90000000596,30583.90000000596,30999.80000001192,31863.90000000596,32431.80000001192,32855.80000001192,33871.30000001192,34775.80000001192,35303.30000001192,36075.60000000894,39295.5,39887.80000001192,40351.5,40783.80000001192,41200,42023.80000001192,42511.30000001192,43187.80000001192,43647.80000001192,44095.20000000298,44543,45047.80000001192],"key_events":[],"mouse_events":[8951.20000000298,11636,12195.5,12787.90000000596,13488.10000000894,13983.90000000596,14579.90000000596,15287.90000000596,15883.5,16311.300000011921,16727.80000001192,17215.70000000298,17715.80000001192,18275.80000001192,18835.10000000894,20435.80000001192,21319.80000001192,21767.40000000596,22271.70000000298,22695.90000000596,23096.10000000894,23555.70000000298,26791.90000000596,27983.90000000596,28635.70000000298,29036.10000000894,29547.80000001192,30199.90000000596,30583.90000000596,30999.80000001192,31479.70000000298,31863.90000000596,32431.80000001192,32855.80000001192,33263.90000000596,33871.30000001192,34312.40000000596,34775.80000001192,35303.30000001192,36075.60000000894,38059.80000001192,39295.5,39887.80000001192,40351.5,40783.80000001192,41200,41599.40000000596,42023.80000001192,42511.30000001192,43187.80000001192,43647.80000001192,44095.20000000298,44543,45047.80000001192,46375.90000000596],"honeypot":0,"survey":"mace","page":9,"trial_type":"survey-mace","trial_index":17,"time_elapsed":463775,"internal_node_id":"0.0-17.0","task_version":"prescreen-v0.3","browser_interactions":0},{"responses":{"01":"No","02":"No","03":"No","04":"No","05":"No","06":"Yes","06_ages_17":"17","07":"No","08":"No"},"rt":20242.09999999404,"item_order":[0,1,2,3,4,5,6,7],"radio_events":[2279.2000000029802,3440,4887,6563.5999999940395,10015.70000000298,12427.40000000596,17519.40000000596,19499.29999999702],"checkbox_events":[13951.20000000298],"key_events":[],"mouse_events":[2279.2000000029802,3440,4887,6563.5999999940395,10015.70000000298,12427.40000000596,13951.20000000298,17519.40000000596,18795.40000000596,19499.29999999702,20239.20000000298],"honeypot":0,"survey":"mace","page":10,"trial_type":"survey-mace","trial_index":18,"time_elapsed":484022,"internal_node_id":"0.0-18.0","task_version":"prescreen-v0.3","browser_interactions":0,"instructed":0},{"rt":4754.20000000298,"trial_type":"mental-health-alert","trial_index":19,"time_elapsed":488777,"internal_node_id":"0.0-19.0","task_version":"prescreen-v0.3","interactions":"[]"}]