[{"view_history":[{"page_index":0,"viewing_time":3383},{"page_index":1,"viewing_time":2933},{"page_index":2,"viewing_time":2862},{"page_index":3,"viewing_time":1114}],"rt":10292,"trial_type":"instructions","trial_index":0,"time_elapsed":10295,"internal_node_id":"0.0-0.0","task_version":"prescreen-v0.3"},{"rt":33612,"responses":{"age":"24","gender-categorical":"Male","gender-free-response":"","ethnicity":"Not Hispanic or Latino","race":["White"],"education":"Some college","siblings":"1"},"trial_type":"survey-demo","trial_index":1,"time_elapsed":43913,"internal_node_id":"0.0-1.0","task_version":"prescreen-v0.3"},{"responses":{"Q05":"2","Q11":"1","Q19":"0","Q08":"3","Q07":"0","Q02":"1","Q06":"0","Q17":"0","Q21":"3","Q12":"1","Q13":"2","Q20":"2","Q14":"2","Q18":"1","Q10":"0","Q04":"0","Q03":"1","Q15":"2","Q09":"2","Q01":"2","Q16":"2"},"rt":186071,"item_order":[4,10,18,7,6,1,5,16,20,11,12,19,13,17,9,3,2,14,8,0,15],"radio_events":[11781,20347,26148,30960,41960,63058,67932,76070,90398,101793,104716,113140,122144,124049,124496,134530,139580,144802,148004,155677,156050,160745,164574,169061,185110],"key_events":[],"mouse_events":[9461,10213,11781,19161,20347,26148,30960,41960,61750,62508,63058,67560,67932,75274,76070,90398,100483,101793,104716,113140,122144,124049,124496,134530,139580,144802,148004,155677,156050,160745,164574,168696,169061,180392,184624,185110,186071],"straightlining":0.38095238095238093,"zigzagging":0.6,"honeypot":0,"survey":"sns","trial_type":"survey-template","trial_index":2,"time_elapsed":229989,"internal_node_id":"0.0-2.0","task_version":"prescreen-v0.3","browser_interactions":0,"infrequency":0},{"responses":{"Q08":"3","Q11":"2","Q13":"0","Q07":"3","Q04":"3","Q12":"0","Q05":"3","Q02":"2","Q03":"2","Q01":"3","Q10":"1","Q09":"2","Q06":"3"},"rt":103656,"item_order":[7,10,12,6,3,11,4,1,2,0,9,8,5],"radio_events":[14599,26179,28258,33860,38847,43017,51120,55258,65677,68732,72213,86521,101123,102801],"key_events":[],"mouse_events":[12540,14599,25550,26179,27895,28258,33860,38847,43017,51120,54678,55258,65677,68732,72213,86521,101123,102801,103656],"straightlining":0.46153846153846156,"zigzagging":0.6666666666666666,"honeypot":0,"survey":"bisbas","trial_type":"survey-template","trial_index":3,"time_elapsed":333649,"internal_node_id":"0.0-3.0","task_version":"prescreen-v0.3","browser_interactions":0,"infrequency":0},{"responses":{"Q01":"3","Q02":"2","Q03":"3"},"rt":31029,"radio_events":[23333,26789,28214],"key_events":[],"mouse_events":[22715,23333,25861,26789,27717,28214,31029],"survey":"map","page":1,"trial_type":"survey-map","trial_index":4,"time_elapsed":364681,"internal_node_id":"0.0-4.0","task_version":"prescreen-v0.3","browser_interactions":0},{"responses":{"Q04":"0","Q05":"0","Q06":"0"},"rt":18882,"radio_events":[6051,9623,13520],"key_events":[],"mouse_events":[5272,6051,9623,11179,12231,13520,18882],"survey":"map","page":2,"trial_type":"survey-map","trial_index":5,"time_elapsed":383567,"internal_node_id":"0.0-5.0","task_version":"prescreen-v0.3","browser_interactions":0},{"responses":{"Q07":"4","Q08":"2","Q09":"4"},"rt":25624,"radio_events":[11765,16157,18292],"key_events":[],"mouse_events":[10637,11765,13283,14418,16157,17209,18292,25624],"survey":"map","page":3,"trial_type":"survey-map","trial_index":6,"time_elapsed":409194,"internal_node_id":"0.0-6.0","task_version":"prescreen-v0.3","browser_interactions":0},{"responses":{"Q10":"3","Q11":"2","Q12":"2","Q13":"3","Q16":"0","Q14":"3","Q15":"1"},"rt":73155,"radio_events":[8968,16160,25834,36241,42322,55273,71792],"key_events":[],"mouse_events":[8179,8968,15787,16160,25834,36241,40301,41656,42322,55273,71792,73155],"survey":"map","page":4,"trial_type":"survey-map","trial_index":7,"time_elapsed":482351,"internal_node_id":"0.0-7.0","task_version":"prescreen-v0.3","browser_interactions":0,"infrequency":0},{"view_history":[{"page_index":0,"viewing_time":1865},{"page_index":1,"viewing_time":7787}],"rt":9652,"trial_type":"instructions","trial_index":8,"time_elapsed":492005,"internal_node_id":"0.0-8.0","task_version":"prescreen-v0.3"},{"responses":{"01":"No","02":"No","03":"No","04":"No","05":"No","06":"No"},"rt":25126,"item_order":[0,1,2,3,4,5],"radio_events":[11036,16154,17214,18344,19550,22704],"checkbox_events":[],"key_events":[],"mouse_events":[0,11036,14014,16154,17214,18344,19550,22112,22704,25126],"honeypot":0,"survey":"mace","page":1,"trial_type":"survey-mace","trial_index":9,"time_elapsed":517138,"internal_node_id":"0.0-9.0","task_version":"prescreen-v0.3","browser_interactions":0},{"responses":{"01":"No","02":"No","03":"Yes","03_ages_8":"8","03_ages_9":"9","04":"No","05":"No","06":"No","07":"No","08":"No"},"rt":70855,"item_order":[0,1,2,3,4,5,6,7],"radio_events":[3688,6533,10206,58018,58905,62572,65116,66004,67573],"checkbox_events":[18958,24100,50698,51246,52770,53356],"key_events":[],"mouse_events":[2474,3688,5271,6533,10206,18958,19940,20860,24100,50698,51246,52770,53356,56734,58018,58905,61379,62572,64218,65116,66004,67573,70855],"honeypot":0,"survey":"mace","page":2,"trial_type":"survey-mace","trial_index":10,"time_elapsed":587999,"internal_node_id":"0.0-10.0","task_version":"prescreen-v0.3","browser_interactions":0},{"responses":{"01":"No","02":"No","03":"No","04":"No"},"rt":12781,"item_order":[0,1,2,3],"radio_events":[3347,4963,6354,7670],"checkbox_events":[],"key_events":[],"mouse_events":[3347,4963,6354,7670,12781],"honeypot":0,"survey":"mace","page":3,"trial_type":"survey-mace","trial_index":11,"time_elapsed":600784,"internal_node_id":"0.0-11.0","task_version":"prescreen-v0.3","browser_interactions":0},{"responses":{"01":"No","02":"No"},"rt":10023,"item_order":[0,1],"radio_events":[4078,5221],"checkbox_events":[],"key_events":[],"mouse_events":[4078,5221,10023],"honeypot":0,"survey":"mace","page":4,"trial_type":"survey-mace","trial_index":12,"time_elapsed":610810,"internal_node_id":"0.0-12.0","task_version":"prescreen-v0.3","browser_interactions":0},{"responses":{"01":"No","02":"No","03":"No","04":"No","05":"No"},"rt":18771,"item_order":[0,1,2,3,4],"radio_events":[9374,11701,14910,16247,17724],"checkbox_events":[],"key_events":[],"mouse_events":[9374,11701,13009,14910,16247,17724,18770],"honeypot":0,"survey":"mace","page":5,"trial_type":"survey-mace","trial_index":13,"time_elapsed":629585,"internal_node_id":"0.0-13.0","task_version":"prescreen-v0.3","browser_interactions":0},{"responses":{"01":"Yes","01_ages_12":"12","01_ages_13":"13","01_ages_14":"14","02":"No","03":"No","04":"No","05":"No"},"rt":56333,"item_order":[0,1,2,3,4],"radio_events":[4982,32862,36326,37656,53170],"checkbox_events":[16576,17611,20224],"key_events":[],"mouse_events":[4982,16576,17611,20224,31888,32862,35414,36326,37656,53170,56333],"honeypot":0,"survey":"mace","page":6,"trial_type":"survey-mace","trial_index":14,"time_elapsed":685922,"internal_node_id":"0.0-14.0","task_version":"prescreen-v0.3","browser_interactions":0},{"responses":{"01":"No","02":"No","03":"No","04":"No","05":"No","06":"No","07":"No"},"rt":14627,"item_order":[0,1,2,3,4,5,6],"radio_events":[3124,4747,7483,8246,11032,12770,13921],"checkbox_events":[],"key_events":[],"mouse_events":[3124,4747,7483,8246,11032,12770,13921,14627],"honeypot":0,"survey":"mace","page":7,"trial_type":"survey-mace","trial_index":15,"time_elapsed":700555,"internal_node_id":"0.0-15.0","task_version":"prescreen-v0.3","browser_interactions":0},{"responses":{"01":"No","02":"No","03":"No","04":"No"},"rt":18723,"item_order":[0,1,2,3],"radio_events":[6353,9772,13636,15759],"checkbox_events":[],"key_events":[],"mouse_events":[6353,9772,13636,15759,18723],"honeypot":0,"survey":"mace","page":8,"trial_type":"survey-mace","trial_index":16,"time_elapsed":719282,"internal_node_id":"0.0-16.0","task_version":"prescreen-v0.3","browser_interactions":0},{"responses":{"01":"Yes","01_ages_1":"1","01_ages_2":"2","01_ages_3":"3","01_ages_4":"4","01_ages_5":"5","01_ages_6":"6","01_ages_7":"7","01_ages_8":"8","01_ages_9":"9","01_ages_10":"10","01_ages_11":"11","01_ages_12":"12","01_ages_13":"13","01_ages_14":"14","01_ages_15":"15","01_ages_16":"16","01_ages_17":"17","01_ages_18":"18","02":"Yes","02_ages_1":"1","02_ages_2":"2","02_ages_3":"3","02_ages_4":"4","02_ages_5":"5","02_ages_6":"6","02_ages_7":"7","02_ages_8":"8","02_ages_9":"9","02_ages_10":"10","02_ages_11":"11","02_ages_12":"12","02_ages_13":"13","02_ages_14":"14","02_ages_15":"15","02_ages_16":"16","02_ages_17":"17","02_ages_18":"18","03":"Yes","03_ages_1":"1","03_ages_2":"2","03_ages_3":"3","03_ages_4":"4","03_ages_5":"5","03_ages_6":"6","03_ages_7":"7","03_ages_8":"8","03_ages_9":"9","03_ages_10":"10","03_ages_11":"11","03_ages_12":"12","03_ages_13":"13","03_ages_14":"14","03_ages_15":"15","03_ages_16":"16","03_ages_17":"17","03_ages_18":"18","04":"Yes","04_ages_1":"1","04_ages_2":"2","04_ages_3":"3","04_ages_4":"4","04_ages_5":"5","04_ages_6":"6","04_ages_7":"7","04_ages_8":"8","04_ages_9":"9","04_ages_10":"10","04_ages_11":"11","04_ages_12":"12","04_ages_13":"13","04_ages_14":"14","04_ages_15":"15","04_ages_16":"16","04_ages_17":"17","04_ages_18":"18"},"rt":82264,"item_order":[0,1,2,3],"radio_events":[3706,17308,32804,63474],"checkbox_events":[5597,6048,6666,7060,7825,8482,9146,9718,10190,10831,11272,12092,12539,13104,13638,14016,14534,15168,19820,20300,20731,21179,21681,22240,22905,23414,23908,24372,24836,25223,25588,26012,26398,26830,28122,28631,35216,35705,36547,37172,37836,38292,38794,39319,39793,41019,41608,42358,43315,44128,44683,45301,45735,46500,65678,66250,66760,67191,67640,68011,68823,69285,69936,70624,71001,71396,72138,72531,73144,73475,73862,74611],"key_events":[],"mouse_events":[3706,5597,6048,6666,7060,7470,7825,8482,9146,9718,10190,10831,11272,12092,12539,13104,13638,14016,14534,15168,16790,17308,18924,19820,20300,20731,21179,21681,22240,22905,23414,23908,24372,24836,25223,25588,26012,26398,26830,27257,27750,28122,28631,32804,35216,35705,36547,37172,37836,38292,38794,39319,39793,40301,41019,41608,42358,42852,43315,44128,44683,45301,45735,46500,63474,65678,66250,66760,67191,67640,68011,68391,68823,69285,69936,70314,70624,71001,71396,71800,72138,72531,73144,73475,73862,74241,74611,82264],"honeypot":0,"survey":"mace","page":9,"trial_type":"survey-mace","trial_index":17,"time_elapsed":801550,"internal_node_id":"0.0-17.0","task_version":"prescreen-v0.3","browser_interactions":0},{"responses":{"01":"No","02":"No","03":"No","04":"No","05":"No","06":"Yes","06_ages_17":"17","07":"Yes","07_ages_1":"1","07_ages_2":"2","07_ages_3":"3","07_ages_4":"4","07_ages_5":"5","07_ages_6":"6","07_ages_7":"7","07_ages_8":"8","07_ages_9":"9","07_ages_10":"10","07_ages_11":"11","07_ages_12":"12","07_ages_13":"13","07_ages_14":"14","07_ages_15":"15","07_ages_16":"16","07_ages_17":"17","07_ages_18":"18","08":"Yes","08_ages_1":"1","08_ages_2":"2","08_ages_3":"3","08_ages_4":"4","08_ages_5":"5","08_ages_6":"6","08_ages_7":"7","08_ages_8":"8","08_ages_9":"9","08_ages_10":"10","08_ages_11":"11","08_ages_12":"12","08_ages_13":"13","08_ages_14":"14","08_ages_15":"15","08_ages_16":"16","08_ages_17":"17","08_ages_18":"18"},"rt":58045,"item_order":[0,1,2,3,4,5,6,7],"radio_events":[7522,8239,14500,15767,19648,21193,26401,45947],"checkbox_events":[22561,31635,32106,33204,33829,34650,35090,35516,35877,36209,36673,37030,37871,38637,39257,40298,40761,41512,42378,47339,47712,48206,48699,49109,49450,49890,50610,50957,51412,52131,52657,53151,53624,54088,54898,55454,55917],"key_events":[],"mouse_events":[7522,8239,14500,15767,19138,19648,21193,22561,26401,31635,32106,32499,33204,33829,34207,34650,35090,35516,35877,36209,36673,37030,37439,37871,38637,39257,39850,40298,40761,41156,41512,42032,42378,45369,45947,47339,47712,48206,48699,49109,49450,49890,50261,50610,50957,51412,52131,52657,53151,53624,54088,54898,55454,55917,58045],"honeypot":0,"survey":"mace","page":10,"trial_type":"survey-mace","trial_index":18,"time_elapsed":859603,"internal_node_id":"0.0-18.0","task_version":"prescreen-v0.3","browser_interactions":0,"instructed":0},{"rt":3536,"trial_type":"mental-health-alert","trial_index":19,"time_elapsed":863140,"internal_node_id":"0.0-19.0","task_version":"prescreen-v0.3","interactions":"[{\"event\":\"focus\",\"trial\":0,\"time\":1}]"}]