[{"view_history":[{"page_index":0,"viewing_time":2149.7000000029802},{"page_index":1,"viewing_time":3375},{"page_index":2,"viewing_time":2857.5},{"page_index":3,"viewing_time":1068.5999999940395}],"rt":9451.40000000596,"trial_type":"instructions","trial_index":0,"time_elapsed":9465,"internal_node_id":"0.0-0.0","task_version":"prescreen-v0.3"},{"rt":10672.800000011921,"responses":{"age":"30","gender-categorical":"Female","gender-free-response":"","ethnicity":"Not Hispanic or Latino","race":["Asian"],"education":"Bachelor degree"},"trial_type":"survey-demo","trial_index":1,"time_elapsed":20142,"internal_node_id":"0.0-1.0","task_version":"prescreen-v0.3"},{"responses":{"Q17":"0","Q09":"1","Q14":"2","Q02":"1","Q05":"1","Q07":"2","Q08":"2","Q04":"2","Q12":"1","Q18":"1","Q16":"3","Q06":"0","Q15":"3","Q13":"3","Q11":"0","Q19":"1","Q03":"1","Q01":"0","Q20":"1","Q21":"3","Q10":"2"},"rt":98290.90000000596,"item_order":[16,8,13,1,4,6,7,3,11,17,15,5,14,12,10,18,2,0,19,20,9],"radio_events":[5745.20000000298,9873.70000000298,13631.10000000894,17163.80000001192,23632.5,30259.10000000894,34399.10000000894,38820.30000001192,42983.10000000894,48259.10000000894,52298.40000000596,58350.5,62479.5,65280.80000001192,69634.60000000894,75687.80000001192,79703.80000001192,81796,84417.40000000596,88917.5,90132.60000000894,97152.60000000894],"key_events":[],"mouse_events":[5745.20000000298,9873.70000000298,13631.10000000894,17163.80000001192,23632.5,30259.10000000894,34399.10000000894,38820.30000001192,42983.10000000894,48259.10000000894,52298.40000000596,58350.5,62479.5,65280.80000001192,69634.60000000894,75687.80000001192,79703.80000001192,81796,84417.40000000596,88917.5,90132.60000000894,97152.60000000894,98289],"straightlining":0.38095238095238093,"zigzagging":0.6,"honeypot":0,"survey":"sns","trial_type":"survey-template","trial_index":2,"time_elapsed":118438,"internal_node_id":"0.0-2.0","task_version":"prescreen-v0.3","browser_interactions":0,"infrequency":0},{"responses":{"Q07":"3","Q06":"2","Q04":"3","Q05":"3","Q01":"3","Q02":"3","Q11":"3","Q09":"3","Q08":"3","Q13":"0","Q12":"1","Q10":"2","Q03":"3"},"rt":48630.40000000596,"item_order":[6,5,3,4,0,1,10,8,7,12,11,9,2],"radio_events":[5248.29999999702,9546.29999999702,12741.09999999404,15227.29999999702,16408.90000000596,18951,23136,26590.20000000298,30696.5,32777.90000000596,38852.79999999702,43735.20000000298,47942.70000000298],"key_events":[],"mouse_events":[5248.29999999702,9546.29999999702,12741.09999999404,15227.29999999702,16408.90000000596,18951,22371.09999999404,23136,26590.20000000298,30696.5,32777.90000000596,38852.79999999702,43735.20000000298,47942.70000000298,48629.40000000596],"straightlining":0.6923076923076923,"zigzagging":0.5,"honeypot":0,"survey":"bisbas","trial_type":"survey-template","trial_index":3,"time_elapsed":167071,"internal_node_id":"0.0-3.0","task_version":"prescreen-v0.3","browser_interactions":0,"infrequency":0},{"responses":{"Q01":"1","Q02":"1","Q03":"2"},"rt":20618,"radio_events":[6768.70000000298,13721.09999999404,19773.59999999404],"key_events":[],"mouse_events":[6768.70000000298,13721.09999999404,19773.59999999404,20617.39999999106],"survey":"map","page":1,"trial_type":"survey-map","trial_index":4,"time_elapsed":187692,"internal_node_id":"0.0-4.0","task_version":"prescreen-v0.3","browser_interactions":0},{"responses":{"Q04":"2","Q05":"1","Q06":"2"},"rt":16164.79999999702,"radio_events":[4261.699999988079,9864.5,11754.5,14724.199999988079],"key_events":[],"mouse_events":[4261.699999988079,9864.5,11754.5,14724.199999988079,16164.29999999702],"survey":"map","page":2,"trial_type":"survey-map","trial_index":5,"time_elapsed":203858,"internal_node_id":"0.0-5.0","task_version":"prescreen-v0.3","browser_interactions":0},{"responses":{"Q07":"2","Q08":"1","Q09":"0"},"rt":13791.10000000894,"radio_events":[5229.100000008941,9144.10000000894,12879.60000000894],"key_events":[],"mouse_events":[5229.100000008941,9144.10000000894,12879.60000000894,13790.5],"survey":"map","page":3,"trial_type":"survey-map","trial_index":6,"time_elapsed":217651,"internal_node_id":"0.0-6.0","task_version":"prescreen-v0.3","browser_interactions":0},{"responses":{"Q10":"0","Q11":"0","Q12":"0","Q13":"0","Q16":"0","Q14":"0","Q15":"0"},"rt":34199.10000000894,"radio_events":[8558.79999999702,11326.5,14960.40000000596,18504.20000000298,21766.90000000596,29979.40000000596,30822.90000000596],"key_events":[],"mouse_events":[7389.100000008941,8558.79999999702,11326.5,14960.40000000596,18504.20000000298,21766.90000000596,29979.40000000596,30822.90000000596,34198.10000000894],"survey":"map","page":4,"trial_type":"survey-map","trial_index":7,"time_elapsed":251852,"internal_node_id":"0.0-7.0","task_version":"prescreen-v0.3","browser_interactions":0,"infrequency":0},{"view_history":[{"page_index":0,"viewing_time":1516.3999999910593},{"page_index":1,"viewing_time":3082}],"rt":4599.399999991059,"trial_type":"instructions","trial_index":8,"time_elapsed":256453,"internal_node_id":"0.0-8.0","task_version":"prescreen-v0.3"},{"responses":{"01":"No","02":"No","03":"No","04":"No","05":"Yes","05_ages_4":"4","05_ages_5":"5","06":"No"},"rt":47102.5,"item_order":[0,1,2,3,4,5],"radio_events":[8680.59999999404,12358.59999999404,20437,23012.79999999702,24419.5,27569.40000000596,38256.70000000298],"checkbox_events":[34240.59999999404,34735.70000000298],"key_events":[],"mouse_events":[0.09999999403953552,8680.59999999404,12358.59999999404,20437,23012.79999999702,24419.5,27569.40000000596,34240.59999999404,34735.70000000298,38256.70000000298,47100.09999999404],"honeypot":0,"survey":"mace","page":1,"trial_type":"survey-mace","trial_index":9,"time_elapsed":303561,"internal_node_id":"0.0-9.0","task_version":"prescreen-v0.3","browser_interactions":0},{"responses":{"01":"No","02":"No","03":"Yes","03_ages_4":"4","03_ages_5":"5","03_ages_6":"6","03_ages_7":"7","03_ages_8":"8","03_ages_9":"9","03_ages_10":"10","04":"No","05":"Yes","05_ages_4":"4","05_ages_5":"5","05_ages_6":"6","05_ages_7":"7","05_ages_8":"8","05_ages_9":"9","05_ages_10":"10","06":"No","07":"No","08":"No"},"rt":34456.30000001192,"item_order":[0,1,2,3,4,5,6,7],"radio_events":[2739.2000000029802,5474.600000008941,8285.60000000894,18950.40000000596,21560.90000000596,31989.5,32731.90000000596,33710.70000000298],"checkbox_events":[14158.20000000298,14641.70000000298,15170.40000000596,15631.90000000596,16835.30000001192,22562,23023.40000000596,23698.30000001192,24125.60000000894,24654.10000000894,25723.10000000894,26308,27309.5,29008],"key_events":[],"mouse_events":[2739.2000000029802,5474.600000008941,8285.60000000894,14158.20000000298,14641.70000000298,15170.40000000596,15631.90000000596,16194.40000000596,16835.30000001192,18950.40000000596,21560.90000000596,22562,23023.40000000596,23698.30000001192,24125.60000000894,24654.10000000894,25723.10000000894,26308,27309.5,28108,29008,31989.5,32731.90000000596,33710.70000000298,34453.30000001192],"honeypot":0,"survey":"mace","page":2,"trial_type":"survey-mace","trial_index":10,"time_elapsed":338021,"internal_node_id":"0.0-10.0","task_version":"prescreen-v0.3","browser_interactions":0},{"responses":{"01":"No","02":"No","03":"No","04":"No"},"rt":8702.70000000298,"item_order":[0,1,2,3],"radio_events":[3424.9000000059605,5292.29999999702,7148.5,8104.79999999702],"checkbox_events":[],"key_events":[],"mouse_events":[3424.9000000059605,5292.29999999702,7148.5,8104.79999999702,8701.10000000894],"honeypot":0,"survey":"mace","page":3,"trial_type":"survey-mace","trial_index":11,"time_elapsed":346726,"internal_node_id":"0.0-11.0","task_version":"prescreen-v0.3","browser_interactions":0},{"responses":{"01":"No","02":"No"},"rt":3866.7999999970198,"item_order":[0,1],"radio_events":[2144.5999999940395,2842.0999999940395],"checkbox_events":[],"key_events":[],"mouse_events":[2144.5999999940395,2842.0999999940395,3866],"honeypot":0,"survey":"mace","page":4,"trial_type":"survey-mace","trial_index":12,"time_elapsed":350595,"internal_node_id":"0.0-12.0","task_version":"prescreen-v0.3","browser_interactions":0},{"responses":{"01":"No","02":"No","03":"No","04":"No","05":"No"},"rt":20406.70000000298,"item_order":[0,1,2,3,4],"radio_events":[10065.60000000894,13485.70000000298,16230.79999999702,17411.90000000596,19707],"checkbox_events":[],"key_events":[],"mouse_events":[10065.60000000894,13485.70000000298,16230.79999999702,17411.90000000596,19707,20404.79999999702],"honeypot":0,"survey":"mace","page":5,"trial_type":"survey-mace","trial_index":13,"time_elapsed":371005,"internal_node_id":"0.0-13.0","task_version":"prescreen-v0.3","browser_interactions":0},{"responses":{"01":"Yes","01_ages_8":"8","01_ages_9":"9","01_ages_10":"10","01_ages_11":"11","01_ages_12":"12","01_ages_13":"13","01_ages_14":"14","02":"Yes","02_ages_7":"7","02_ages_8":"8","02_ages_9":"9","02_ages_10":"10","02_ages_11":"11","02_ages_12":"12","02_ages_13":"13","02_ages_14":"14","02_ages_15":"15","03":"Yes","03_ages_12":"12","03_ages_13":"13","03_ages_14":"14","03_ages_15":"15","03_ages_16":"16","03_ages_17":"17","03_ages_18":"18","04":"Yes","04_ages_10":"10","04_ages_11":"11","04_ages_12":"12","04_ages_13":"13","04_ages_14":"14","04_ages_15":"15","04_ages_16":"16","04_ages_17":"17","04_ages_18":"18","05":"No"},"rt":63110.5,"item_order":[0,1,2,3,4],"radio_events":[10007.5,31754,40923,52240.80000001192,61758.20000000298],"checkbox_events":[24149,24880.5,25712.70000000298,26308.90000000596,26747.80000001192,27209.30000001192,27783,33104.40000000596,33779.20000000298,34375.40000000596,35061.5,35468.90000000596,35950.60000000894,36568.90000000596,37187.80000001192,37683,43690.5,44973.30000001192,45535.60000000894,46469.20000000298,47031.60000000894,47504.20000000298,47931.5,48449.60000000894,49056.90000000596,49844.20000000298,50542.20000000298,54851.10000000894,55728.40000000596,56380.70000000298,56988,57562.20000000298,58023.40000000596,58439.40000000596,58945.90000000596,59485.80000001192],"key_events":[],"mouse_events":[10007.5,24149,24880.5,25712.70000000298,26308.90000000596,26747.80000001192,27209.30000001192,27783,31754,33104.40000000596,33779.20000000298,34375.40000000596,35061.5,35468.90000000596,35950.60000000894,36568.90000000596,37187.80000001192,37683,40923,43690.5,44973.30000001192,45535.60000000894,46469.20000000298,47031.60000000894,47504.20000000298,47931.5,48449.60000000894,49056.90000000596,49844.20000000298,50542.20000000298,52240.80000001192,54851.10000000894,55728.40000000596,56380.70000000298,56988,57562.20000000298,58023.40000000596,58439.40000000596,58945.90000000596,59485.80000001192,61758.20000000298,63108.60000000894],"honeypot":0,"survey":"mace","page":6,"trial_type":"survey-mace","trial_index":14,"time_elapsed":434119,"internal_node_id":"0.0-14.0","task_version":"prescreen-v0.3","browser_interactions":0},{"responses":{"01":"No","02":"Yes","02_ages_15":"15","02_ages_16":"16","02_ages_17":"17","02_ages_18":"18","03":"No","04":"No","05":"No","06":"No","07":"Yes","07_ages_17":"17","07_ages_18":"18"},"rt":33579.5,"item_order":[0,1,2,3,4,5,6],"radio_events":[5878.5,9410.89999999106,10344.59999999404,17241.19999998808,19491.59999999404,20931.19999998808,22337.69999998808,28749.89999999106],"checkbox_events":[13134.89999999106,13539.5,14046.09999999404,14507.199999988079,31495.09999999404,32035.5],"key_events":[],"mouse_events":[5878.5,9410.89999999106,10344.59999999404,13134.89999999106,13539.5,14046.09999999404,14507.199999988079,17241.19999998808,18365.89999999106,19491.59999999404,20931.19999998808,22337.69999998808,28749.89999999106,31495.09999999404,32035.5,33576.89999999106],"honeypot":0,"survey":"mace","page":7,"trial_type":"survey-mace","trial_index":15,"time_elapsed":467703,"internal_node_id":"0.0-15.0","task_version":"prescreen-v0.3","browser_interactions":0},{"responses":{"01":"No","02":"No","03":"Yes","03_ages_7":"7","03_ages_8":"8","03_ages_9":"9","03_ages_10":"10","03_ages_11":"11","03_ages_12":"12","03_ages_13":"13","03_ages_14":"14","03_ages_15":"15","03_ages_16":"16","03_ages_17":"17","03_ages_18":"18","04":"No"},"rt":28592.89999999106,"item_order":[0,1,2,3],"radio_events":[7373.79999999702,9905,12908.79999999702,27691.39999999106],"checkbox_events":[19107.79999999702,19793.69999998808,20648.5,21143.69999998808,21539.29999999702,22043.89999999106,22662.79999999702,23034,23877.69999998808,24417.39999999106,25036.5,25643.69999998808],"key_events":[],"mouse_events":[7373.79999999702,9905,12908.79999999702,19107.79999999702,19793.69999998808,20648.5,21143.69999998808,21539.29999999702,22043.89999999106,22662.79999999702,23034,23877.69999998808,24417.39999999106,25036.5,25643.69999998808,27691.39999999106,28591.29999999702],"honeypot":0,"survey":"mace","page":8,"trial_type":"survey-mace","trial_index":16,"time_elapsed":496298,"internal_node_id":"0.0-16.0","task_version":"prescreen-v0.3","browser_interactions":0},{"responses":{"01":"Yes","01_ages_1":"1","01_ages_2":"2","01_ages_3":"3","01_ages_4":"4","01_ages_5":"5","01_ages_6":"6","01_ages_7":"7","01_ages_8":"8","01_ages_9":"9","01_ages_10":"10","01_ages_11":"11","01_ages_12":"12","01_ages_13":"13","01_ages_14":"14","01_ages_15":"15","01_ages_16":"16","01_ages_17":"17","01_ages_18":"18","02":"Yes","02_ages_1":"1","02_ages_2":"2","02_ages_3":"3","02_ages_4":"4","02_ages_5":"5","02_ages_6":"6","02_ages_7":"7","02_ages_8":"8","02_ages_9":"9","02_ages_10":"10","02_ages_11":"11","02_ages_12":"12","02_ages_13":"13","02_ages_14":"14","02_ages_15":"15","02_ages_16":"16","02_ages_17":"17","02_ages_18":"18","03":"Yes","03_ages_1":"1","03_ages_2":"2","03_ages_3":"3","03_ages_4":"4","03_ages_5":"5","03_ages_6":"6","03_ages_7":"7","03_ages_8":"8","03_ages_9":"9","03_ages_10":"10","03_ages_11":"11","03_ages_12":"12","03_ages_13":"13","03_ages_14":"14","03_ages_15":"15","03_ages_16":"16","03_ages_17":"17","03_ages_18":"18","04":"Yes","04_ages_1":"1","04_ages_2":"2","04_ages_3":"3","04_ages_4":"4","04_ages_5":"5","04_ages_6":"6","04_ages_7":"7","04_ages_8":"8","04_ages_9":"9","04_ages_10":"10","04_ages_11":"11","04_ages_12":"12","04_ages_13":"13","04_ages_14":"14","04_ages_15":"15","04_ages_16":"16","04_ages_17":"17","04_ages_18":"18"},"rt":60782.5,"item_order":[0,1,2,3],"radio_events":[4316,19436.60000000894,34106.60000000894,36109.10000000894],"checkbox_events":[6318.600000008941,6735,7117.20000000298,7567.29999999702,8692.79999999702,9987.60000000894,10436.10000000894,10897.79999999702,11358.60000000894,12236,12686.20000000298,13350.29999999702,13912.29999999702,14497.90000000596,15589.10000000894,15993.90000000596,16668.90000000596,17287.70000000298,20932.79999999702,21405.40000000596,22485.10000000894,23171.5,23587.5,24194.90000000596,24600.40000000596,25466.60000000894,25939.10000000894,26354.90000000596,26805,27333.79999999702,27919.29999999702,28650.40000000596,29258.10000000894,29887.70000000298,30405.20000000298,31023.90000000596,37324.10000000894,37684.40000000596,38111.70000000298,38752.90000000596,39608.10000000894,40136.90000000596,40553,40991.60000000894,41655.60000000894,42904.40000000596,43331.90000000596,43770.29999999702,44186.40000000596,44771.5,45446.79999999702,46099.20000000298,46639.10000000894,47370.5,48563.20000000298,48911.70000000298,49316.70000000298,49710.60000000894,50104.40000000596,50644.40000000596,51206.79999999702,52320.40000000596,52714.29999999702,53198.10000000894,53693.5,54514.60000000894,55178.20000000298,55932,57034.40000000596,57721,58305.60000000894,59104.40000000596],"key_events":[],"mouse_events":[4316,6318.600000008941,6735,7117.20000000298,7567.29999999702,8096.29999999702,8692.79999999702,9232.5,9987.60000000894,10436.10000000894,10897.79999999702,11358.60000000894,12236,12686.20000000298,13350.29999999702,13912.29999999702,14497.90000000596,15589.10000000894,15993.90000000596,16668.90000000596,17287.70000000298,19436.60000000894,20932.79999999702,21405.40000000596,22485.10000000894,23171.5,23587.5,24194.90000000596,24600.40000000596,25005.20000000298,25466.60000000894,25939.10000000894,26354.90000000596,26805,27333.79999999702,27919.29999999702,28650.40000000596,29258.10000000894,29887.70000000298,30405.20000000298,31023.90000000596,34106.60000000894,36109.10000000894,37324.10000000894,37684.40000000596,38111.70000000298,38752.90000000596,39608.10000000894,40136.90000000596,40553,40991.60000000894,41655.60000000894,42532.79999999702,42904.40000000596,43331.90000000596,43770.29999999702,44186.40000000596,44771.5,45446.79999999702,46099.20000000298,46639.10000000894,47370.5,48563.20000000298,48911.70000000298,49316.70000000298,49710.60000000894,50104.40000000596,50644.40000000596,51206.79999999702,52320.40000000596,52714.29999999702,53198.10000000894,53693.5,54143.10000000894,54514.60000000894,55178.20000000298,55932,56314.60000000894,57034.40000000596,57721,58305.60000000894,59104.40000000596,60781],"honeypot":0,"survey":"mace","page":9,"trial_type":"survey-mace","trial_index":17,"time_elapsed":557084,"internal_node_id":"0.0-17.0","task_version":"prescreen-v0.3","browser_interactions":0},{"responses":{"01":"No","02":"No","03":"Yes","03_ages_15":"15","03_ages_16":"16","03_ages_17":"17","03_ages_18":"18","04":"Yes","04_ages_14":"14","04_ages_15":"15","04_ages_16":"16","04_ages_17":"17","04_ages_18":"18","05":"Yes","05_ages_10":"10","05_ages_11":"11","05_ages_12":"12","05_ages_13":"13","05_ages_14":"14","05_ages_15":"15","05_ages_16":"16","05_ages_17":"17","05_ages_18":"18","06":"Yes","06_ages_17":"17","07":"Yes","07_ages_1":"1","07_ages_2":"2","07_ages_3":"3","07_ages_4":"4","07_ages_5":"5","07_ages_6":"6","07_ages_7":"7","07_ages_8":"8","07_ages_9":"9","07_ages_10":"10","07_ages_11":"11","07_ages_12":"12","07_ages_13":"13","07_ages_14":"14","07_ages_15":"15","07_ages_16":"16","07_ages_17":"17","07_ages_18":"18","08":"Yes","08_ages_1":"1","08_ages_2":"2","08_ages_3":"3","08_ages_4":"4","08_ages_5":"5","08_ages_6":"6","08_ages_7":"7","08_ages_8":"8","08_ages_9":"9","08_ages_10":"10","08_ages_11":"11","08_ages_12":"12","08_ages_13":"13","08_ages_14":"14","08_ages_15":"15","08_ages_16":"16","08_ages_17":"17","08_ages_18":"18"},"rt":67825.09999999404,"item_order":[0,1,2,3,4,5,6,7],"radio_events":[4405.20000000298,5563.79999999702,9962.70000000298,22845.79999999702,29031.39999999106,37469.20000000298,42779.39999999106,55604.59999999404],"checkbox_events":[17376.5,17905.29999999702,18355.59999999404,19052.5,19952.59999999404,24632.89999999106,25026.70000000298,25612.79999999702,26140.20000000298,30426.79999999702,30854.59999999404,31517.79999999702,31957,32339.59999999404,32845.5,33273.20000000298,33992.89999999106,34589.20000000298,38753.20000000298,43882.20000000298,44984.70000000298,45378,45907,46300.70000000298,46750.59999999404,47853.29999999702,48235.89999999106,48685.79999999702,49068.39999999106,49452.5,49866.89999999106,50272.09999999404,51442.20000000298,52128.29999999702,52634.89999999106,53320.79999999702,53860.89999999106,57146.29999999702,57494.79999999702,57877,58270.89999999106,58912.09999999404,59328.29999999702,60757.29999999702,61286,61668.39999999106,62107,63265.70000000298,64413.70000000298,64840.89999999106,65279.5,65696.09999999404,66203.5,66674.89999999106,67136],"key_events":[],"mouse_events":[4405.20000000298,5563.79999999702,9962.70000000298,17376.5,17905.29999999702,18355.59999999404,19052.5,19952.59999999404,22845.79999999702,24632.89999999106,25026.70000000298,25612.79999999702,26140.20000000298,29031.39999999106,30426.79999999702,30854.59999999404,31517.79999999702,31957,32339.59999999404,32845.5,33273.20000000298,33992.89999999106,34589.20000000298,37469.20000000298,38753.20000000298,42779.39999999106,43882.20000000298,44264.29999999702,44984.70000000298,45378,45907,46300.70000000298,46750.59999999404,47853.29999999702,48235.89999999106,48685.79999999702,49068.39999999106,49452.5,49866.89999999106,50272.09999999404,51442.20000000298,52128.29999999702,52634.89999999106,53320.79999999702,53860.89999999106,55604.59999999404,57146.29999999702,57494.79999999702,57877,58270.89999999106,58912.09999999404,59328.29999999702,59744.89999999106,60757.29999999702,61286,61668.39999999106,62107,63265.70000000298,63715.89999999106,64413.70000000298,64840.89999999106,65279.5,65696.09999999404,66203.5,66674.89999999106,67136,67822.29999999702],"honeypot":0,"survey":"mace","page":10,"trial_type":"survey-mace","trial_index":18,"time_elapsed":624913,"internal_node_id":"0.0-18.0","task_version":"prescreen-v0.3","browser_interactions":0,"instructed":0},{"rt":4996.4000000059605,"trial_type":"mental-health-alert","trial_index":19,"time_elapsed":629915,"internal_node_id":"0.0-19.0","task_version":"prescreen-v0.3","interactions":"[]"}]