[{"view_history":[{"page_index":0,"viewing_time":2843},{"page_index":1,"viewing_time":4992},{"page_index":2,"viewing_time":2436},{"page_index":3,"viewing_time":882}],"rt":11154,"trial_type":"instructions","trial_index":0,"time_elapsed":11184,"internal_node_id":"0.0-0.0","task_version":"prescreen-v0.3"},{"rt":15033,"responses":{"age":"28","gender-categorical":"Female","gender-free-response":"","ethnicity":"Not Hispanic or Latino","race":["White"],"education":"Associate degree"},"trial_type":"survey-demo","trial_index":1,"time_elapsed":26226,"internal_node_id":"0.0-1.0","task_version":"prescreen-v0.3"},{"responses":{"Q14":"1","Q09":"2","Q15":"1","Q07":"1","Q21":"3","Q13":"1","Q11":"1","Q04":"2","Q05":"1","Q20":"0","Q18":"1","Q06":"1","Q12":"2","Q17":"1","Q08":"2","Q03":"1","Q10":"1","Q01":"2","Q02":"1","Q19":"1","Q16":"1"},"rt":87477,"item_order":[13,8,14,6,20,12,10,3,4,19,17,5,11,16,7,2,9,0,1,18,15],"radio_events":[6112,9322,12078,17548,22558,24962,26750,33846,41488,44174,47712,53110,56486,61482,64248,66786,74050,74904,76278,79168,83102,86490],"key_events":[],"mouse_events":[5386,6112,9322,12078,17548,22558,24962,26750,33204,33846,41488,44174,47712,51878,53110,56486,61482,64248,66786,72164,74050,74904,76278,79168,82576,83102,86490,87474],"straightlining":0.6666666666666666,"zigzagging":0.6,"honeypot":0,"survey":"sns","trial_type":"survey-template","trial_index":2,"time_elapsed":113712,"internal_node_id":"0.0-2.0","task_version":"prescreen-v0.3","browser_interactions":0,"infrequency":0},{"responses":{"Q12":"1","Q07":"3","Q08":"2","Q10":"2","Q02":"1","Q04":"3","Q06":"3","Q11":"2","Q01":"2","Q05":"2","Q09":"2","Q03":"2","Q13":"0"},"rt":36692,"item_order":[11,6,7,9,1,3,5,10,0,4,8,2,12],"radio_events":[4836,6710,10190,13316,14380,17248,17908,19254,25344,26150,27584,32234,32600,34836],"key_events":[],"mouse_events":[4836,6710,10190,12474,13316,14380,17248,17908,18746,19254,24696,25344,26150,27584,29486,30554,32234,32600,34836,36690],"straightlining":0.5384615384615384,"zigzagging":0.25,"honeypot":0,"survey":"bisbas","trial_type":"survey-template","trial_index":3,"time_elapsed":150409,"internal_node_id":"0.0-3.0","task_version":"prescreen-v0.3","browser_interactions":0,"infrequency":0},{"responses":{"Q01":"3","Q02":"1","Q03":"2"},"rt":19716,"radio_events":[6631,8271,12931,18913],"key_events":[],"mouse_events":[6631,8271,12931,17979,18431,18913,19715],"survey":"map","page":1,"trial_type":"survey-map","trial_index":4,"time_elapsed":170130,"internal_node_id":"0.0-4.0","task_version":"prescreen-v0.3","browser_interactions":0},{"responses":{"Q04":"3","Q05":"3","Q06":"3"},"rt":9754,"radio_events":[5222,8440,9064],"key_events":[],"mouse_events":[4722,5222,7280,8440,9064,9754],"survey":"map","page":2,"trial_type":"survey-map","trial_index":5,"time_elapsed":179887,"internal_node_id":"0.0-5.0","task_version":"prescreen-v0.3","browser_interactions":0},{"responses":{"Q07":"4","Q08":"4","Q09":"2"},"rt":19886,"radio_events":[4342,8438,18106],"key_events":[],"mouse_events":[4342,7102,8438,9010,9518,11838,12604,18106,19886],"survey":"map","page":3,"trial_type":"survey-map","trial_index":6,"time_elapsed":199777,"internal_node_id":"0.0-6.0","task_version":"prescreen-v0.3","browser_interactions":0},{"responses":{"Q10":"1","Q11":"0","Q12":"2","Q13":"3","Q16":"0","Q14":"3","Q15":"2"},"rt":43253,"radio_events":[6208,13432,14358,24292,29892,33054,37440,42460],"key_events":[],"mouse_events":[5726,6208,13432,14358,24292,29892,33054,36546,37440,42460,43252],"survey":"map","page":4,"trial_type":"survey-map","trial_index":7,"time_elapsed":243034,"internal_node_id":"0.0-7.0","task_version":"prescreen-v0.3","browser_interactions":0,"infrequency":0},{"view_history":[{"page_index":0,"viewing_time":2823},{"page_index":1,"viewing_time":3054}],"rt":5877,"trial_type":"instructions","trial_index":8,"time_elapsed":248914,"internal_node_id":"0.0-8.0","task_version":"prescreen-v0.3"},{"responses":{"01":"No","02":"No","03":"No","04":"No","05":"No","06":"No"},"rt":22023,"item_order":[0,1,2,3,4,5],"radio_events":[8563,12833,15403,17313,18699,19987,21389],"checkbox_events":[],"key_events":[],"mouse_events":[0,8149,8563,12833,15403,17313,18699,19987,21389,22019],"honeypot":0,"survey":"mace","page":1,"trial_type":"survey-mace","trial_index":9,"time_elapsed":270948,"internal_node_id":"0.0-9.0","task_version":"prescreen-v0.3","browser_interactions":0},{"responses":{"01":"No","02":"No","03":"Yes","03_ages_2":"2","03_ages_3":"3","03_ages_4":"4","03_ages_5":"5","04":"Yes","04_ages_2":"2","04_ages_3":"3","04_ages_4":"4","04_ages_5":"5","05":"No","06":"No","07":"No","08":"No"},"rt":26062,"item_order":[0,1,2,3,4,5,6,7],"radio_events":[3410,5972,6996,15540,20232,21300,22632,25428],"checkbox_events":[9261,9714,10158,10532,16970,17316,18460,18966],"key_events":[],"mouse_events":[3410,5972,6996,9261,9714,10158,10532,15540,16422,16970,17316,17940,18460,18966,20232,21300,22632,25428,26056],"honeypot":0,"survey":"mace","page":2,"trial_type":"survey-mace","trial_index":10,"time_elapsed":297017,"internal_node_id":"0.0-10.0","task_version":"prescreen-v0.3","browser_interactions":0},{"responses":{"01":"No","02":"No","03":"No","04":"No"},"rt":8845,"item_order":[0,1,2,3],"radio_events":[2760,5266,7186,7976],"checkbox_events":[],"key_events":[],"mouse_events":[2760,4428,5266,6672,7186,7976,8842],"honeypot":0,"survey":"mace","page":3,"trial_type":"survey-mace","trial_index":11,"time_elapsed":305866,"internal_node_id":"0.0-11.0","task_version":"prescreen-v0.3","browser_interactions":0},{"responses":{"01":"No","02":"No"},"rt":8960,"item_order":[0,1],"radio_events":[2949,3879],"checkbox_events":[],"key_events":[],"mouse_events":[2949,3879,8959],"honeypot":0,"survey":"mace","page":4,"trial_type":"survey-mace","trial_index":12,"time_elapsed":314830,"internal_node_id":"0.0-12.0","task_version":"prescreen-v0.3","browser_interactions":0},{"responses":{"01":"No","02":"No","03":"No","04":"No","05":"No"},"rt":17633,"item_order":[0,1,2,3,4],"radio_events":[6032,10834,11716,13762,17066],"checkbox_events":[],"key_events":[],"mouse_events":[6032,9602,10834,11716,13762,17066,17630],"honeypot":0,"survey":"mace","page":5,"trial_type":"survey-mace","trial_index":13,"time_elapsed":332469,"internal_node_id":"0.0-13.0","task_version":"prescreen-v0.3","browser_interactions":0},{"responses":{"01":"Yes","01_ages_11":"11","01_ages_12":"12","01_ages_13":"13","01_ages_14":"14","01_ages_15":"15","01_ages_16":"16","02":"Yes","02_ages_10":"10","02_ages_11":"11","02_ages_12":"12","02_ages_13":"13","02_ages_14":"14","02_ages_15":"15","02_ages_16":"16","03":"Yes","03_ages_12":"12","03_ages_13":"13","03_ages_14":"14","03_ages_15":"15","03_ages_16":"16","04":"No","05":"No"},"rt":43781,"item_order":[0,1,2,3,4],"radio_events":[7071,23135,30627,40631,42065],"checkbox_events":[9049,10655,11067,11615,12311,14201,14789,15288,15635,16001,16445,18353,19051,20363,20693,21081,24649,24995,25407,25829,26735,27597,32769,33091,33719,34641,35009,35621,35879,36571,37019,37349,37727,38497],"key_events":[],"mouse_events":[7071,9049,10655,11067,11615,12311,13217,13805,14201,14789,15288,15635,16001,16445,17431,18007,18353,18721,19051,19917,20363,20693,21081,23135,24649,24995,25407,25829,26163,26735,27171,27597,29273,30627,32769,33091,33413,33719,34013,34641,35009,35621,35879,36571,37019,37349,37727,38497,40631,42065,43331,43777],"honeypot":0,"survey":"mace","page":6,"trial_type":"survey-mace","trial_index":14,"time_elapsed":376256,"internal_node_id":"0.0-14.0","task_version":"prescreen-v0.3","browser_interactions":0},{"responses":{"01":"No","02":"No","03":"No","04":"No","05":"No","06":"No","07":"No"},"rt":10183,"item_order":[0,1,2,3,4,5,6],"radio_events":[2742,4062,5658,6480,7458,8352,9710],"checkbox_events":[],"key_events":[],"mouse_events":[2742,4062,5658,6480,7458,8352,9318,9710,10178],"honeypot":0,"survey":"mace","page":7,"trial_type":"survey-mace","trial_index":15,"time_elapsed":386445,"internal_node_id":"0.0-15.0","task_version":"prescreen-v0.3","browser_interactions":0},{"responses":{"01":"No","02":"No","03":"No","04":"No"},"rt":15284,"item_order":[0,1,2,3],"radio_events":[5781,10001,13779,14549],"checkbox_events":[],"key_events":[],"mouse_events":[5781,10001,12353,13779,14549,15281],"honeypot":0,"survey":"mace","page":8,"trial_type":"survey-mace","trial_index":16,"time_elapsed":401735,"internal_node_id":"0.0-16.0","task_version":"prescreen-v0.3","browser_interactions":0},{"responses":{"01":"Yes","01_ages_1":"1","01_ages_2":"2","01_ages_3":"3","01_ages_4":"4","01_ages_5":"5","01_ages_6":"6","01_ages_7":"7","01_ages_8":"8","01_ages_9":"9","01_ages_10":"10","01_ages_11":"11","01_ages_12":"12","01_ages_13":"13","01_ages_14":"14","01_ages_15":"15","01_ages_16":"16","01_ages_17":"17","01_ages_18":"18","02":"Yes","02_ages_1":"1","02_ages_2":"2","02_ages_3":"3","02_ages_4":"4","02_ages_5":"5","02_ages_6":"6","02_ages_7":"7","02_ages_8":"8","02_ages_9":"9","02_ages_10":"10","02_ages_11":"11","02_ages_12":"12","02_ages_13":"13","02_ages_14":"14","02_ages_15":"15","02_ages_16":"16","02_ages_17":"17","02_ages_18":"18","03":"Yes","03_ages_1":"1","03_ages_2":"2","03_ages_3":"3","03_ages_4":"4","03_ages_5":"5","03_ages_6":"6","03_ages_7":"7","03_ages_8":"8","03_ages_9":"9","03_ages_10":"10","03_ages_11":"11","03_ages_12":"12","03_ages_13":"13","03_ages_14":"14","03_ages_15":"15","03_ages_16":"16","03_ages_17":"17","03_ages_18":"18","04":"Yes","04_ages_1":"1","04_ages_2":"2","04_ages_3":"3","04_ages_4":"4","04_ages_5":"5","04_ages_6":"6","04_ages_7":"7","04_ages_8":"8","04_ages_9":"9","04_ages_10":"10","04_ages_11":"11","04_ages_12":"12","04_ages_13":"13","04_ages_14":"14","04_ages_15":"15","04_ages_16":"16","04_ages_17":"17","04_ages_18":"18"},"rt":65659,"item_order":[0,1,2,3],"radio_events":[4910,22798,24718,25590],"checkbox_events":[7694,8266,9418,10034,10798,11528,12232,12804,13236,13990,14508,15426,15899,16542,16904,17276,18694,19210,26516,26834,27788,28170,28630,29020,29440,29794,30712,31148,32880,33254,34598,35336,35908,36334,37358,37688,38622,39284,39892,41418,43420,45276,45764,47298,47766,48144,48582,49102,49506,49860,50544,51044,51446,52328,52944,53268,54374,54814,55894,56876,57472,58132,58640,59164,59578,60296,61056,61814,62410,63328,63820,64456],"key_events":[],"mouse_events":[4104,4910,7694,7988,8266,8652,9418,10034,10798,11528,12232,12804,13236,13990,14508,15068,15426,15899,16542,16904,17276,17610,18134,18694,19210,19838,22048,22798,23624,24718,25590,26516,26834,27224,27788,28170,28630,29020,29440,29794,30374,30712,31148,31924,32210,32508,32880,33254,34598,35022,35336,35635,35908,36334,36746,37092,37358,37688,38622,39284,39892,40716,41418,41856,43024,43420,44426,45276,45764,46094,46380,46936,47298,47766,48144,48582,49102,49506,49860,50226,50544,51044,51446,52058,52328,52704,52944,53268,54064,54374,54814,55530,55894,56442,56876,57472,58132,58640,59164,59578,60014,60296,61056,61814,62410,62804,63328,63820,64456,65656],"honeypot":0,"survey":"mace","page":9,"trial_type":"survey-mace","trial_index":17,"time_elapsed":467399,"internal_node_id":"0.0-17.0","task_version":"prescreen-v0.3","browser_interactions":0},{"responses":{"01":"No","02":"No","03":"No","04":"No","05":"No","06":"Yes","06_ages_17":"17","07":"Yes","07_ages_1":"1","07_ages_2":"2","07_ages_3":"3","07_ages_4":"4","07_ages_5":"5","07_ages_6":"6","07_ages_7":"7","07_ages_8":"8","07_ages_9":"9","07_ages_10":"10","07_ages_11":"11","07_ages_12":"12","07_ages_13":"13","07_ages_14":"14","07_ages_15":"15","07_ages_16":"16","07_ages_17":"17","07_ages_18":"18","08":"Yes","08_ages_1":"1","08_ages_2":"2","08_ages_3":"3","08_ages_4":"4","08_ages_5":"5","08_ages_6":"6","08_ages_7":"7","08_ages_8":"8","08_ages_9":"9","08_ages_10":"10","08_ages_11":"11","08_ages_12":"12","08_ages_13":"13","08_ages_14":"14","08_ages_15":"15","08_ages_16":"16","08_ages_17":"17","08_ages_18":"18"},"rt":39088,"item_order":[0,1,2,3,4,5,6,7],"radio_events":[3704,4320,5174,6124,7396,9170,13216,26246],"checkbox_events":[10902,11340,11876,14132,14482,14968,15376,15940,16266,17784,18502,18980,19460,19910,20510,21684,23048,23750,24104,24462,25034,27518,28046,28482,29312,29798,30286,30910,31330,32102,32742,33246,34228,35236,35900,36904,37290,37700,38026],"key_events":[],"mouse_events":[2621,3704,4320,5174,6124,7396,9170,10902,11340,11876,13216,14132,14482,14968,15376,15940,16266,16576,17104,17398,17784,18138,18502,18980,19460,19910,20510,20958,21356,21684,22090,23048,23434,23750,24104,24462,25034,26246,27518,28046,28482,28908,29312,29798,30286,30910,31330,32102,32742,33246,34228,35236,35610,35900,36572,36904,37290,37700,38026,39082],"honeypot":0,"survey":"mace","page":10,"trial_type":"survey-mace","trial_index":18,"time_elapsed":506495,"internal_node_id":"0.0-18.0","task_version":"prescreen-v0.3","browser_interactions":0,"instructed":0},{"rt":8317,"trial_type":"mental-health-alert","trial_index":19,"time_elapsed":514815,"internal_node_id":"0.0-19.0","task_version":"prescreen-v0.3","interactions":"[]"}]