[{"view_history":[{"page_index":0,"viewing_time":2446.699999988079},{"page_index":1,"viewing_time":1943.800000011921},{"page_index":2,"viewing_time":2137.800000011921},{"page_index":3,"viewing_time":810.0999999642372}],"rt":7339.099999964237,"trial_type":"instructions","trial_index":0,"time_elapsed":7360,"internal_node_id":"0.0-0.0","task_version":"prescreen-v0.3"},{"rt":9943.199999988079,"responses":{"age":"23","gender-categorical":"Female","gender-free-response":"","ethnicity":"Not Hispanic or Latino","race":["White"],"education":"Associate degree"},"trial_type":"survey-demo","trial_index":1,"time_elapsed":17309,"internal_node_id":"0.0-1.0","task_version":"prescreen-v0.3"},{"responses":{"Q05":"1","Q15":"1","Q12":"1","Q03":"0","Q21":"3","Q01":"1","Q14":"1","Q04":"1","Q02":"1","Q09":"1","Q10":"0","Q13":"1","Q07":"0","Q08":"1","Q19":"1","Q20":"0","Q18":"0","Q17":"0","Q06":"1","Q11":"1","Q16":"1"},"rt":80798.60000002384,"item_order":[4,14,11,2,20,0,13,3,1,8,9,12,6,7,18,19,17,16,5,10,15],"radio_events":[8316.5,14156.600000023842,18800.30000001192,20812.80000001192,23814.69999998808,26778.600000023842,28704.30000001192,32194.30000001192,37322.40000003576,38700.10000002384,42254.60000002384,48526.30000001192,49276.40000003576,51248.40000003576,56212.60000002384,58184.5,62982.30000001192,66532.5,69974.5,71664.40000003576,75398.40000003576,79476.40000003576],"key_events":[],"mouse_events":[8316.5,14156.600000023842,18800.30000001192,20812.80000001192,23814.69999998808,26778.600000023842,28704.30000001192,32194.30000001192,36136.69999998808,37322.40000003576,38700.10000002384,39796.5,42254.60000002384,48526.30000001192,49276.40000003576,51248.40000003576,56212.60000002384,58184.5,62982.30000001192,66532.5,68952.60000002384,69974.5,71664.40000003576,74886.30000001192,75398.40000003576,76162.60000002384,79076.60000002384,79476.40000003576,80796.60000002384],"straightlining":0.6666666666666666,"zigzagging":0.4,"honeypot":0,"survey":"sns","trial_type":"survey-template","trial_index":2,"time_elapsed":98113,"internal_node_id":"0.0-2.0","task_version":"prescreen-v0.3","browser_interactions":0,"infrequency":0},{"responses":{"Q01":"2","Q06":"3","Q08":"2","Q02":"1","Q03":"1","Q10":"2","Q04":"1","Q12":"1","Q13":"0","Q11":"2","Q09":"2","Q07":"3","Q05":"2"},"rt":34922.59999996424,"item_order":[0,5,7,1,2,9,3,11,12,10,8,6,4],"radio_events":[3663.5,6477.5,9067.300000011921,11455.399999976158,13501.399999976158,18943.30000001192,19605.19999998808,22251.099999964237,24179.19999998808,28507.30000001192,30023.19999998808,33015.30000001192,34321.30000001192],"key_events":[],"mouse_events":[3663.5,6477.5,9067.300000011921,11455.399999976158,13501.399999976158,17389.399999976158,18943.30000001192,19605.19999998808,22251.099999964237,24179.19999998808,28507.30000001192,30023.19999998808,33015.30000001192,34321.30000001192,34921.30000001192],"straightlining":0.46153846153846156,"zigzagging":0.6666666666666666,"honeypot":0,"survey":"bisbas","trial_type":"survey-template","trial_index":3,"time_elapsed":133039,"internal_node_id":"0.0-3.0","task_version":"prescreen-v0.3","browser_interactions":0,"infrequency":0},{"responses":{"Q01":"4","Q02":"3","Q03":"3"},"rt":12968.199999988079,"radio_events":[5787.300000011921,8081.5,12393.400000035763],"key_events":[],"mouse_events":[4107.800000011921,5787.300000011921,8081.5,12393.400000035763,12967.5],"survey":"map","page":1,"trial_type":"survey-map","trial_index":4,"time_elapsed":146010,"internal_node_id":"0.0-4.0","task_version":"prescreen-v0.3","browser_interactions":0},{"responses":{"Q04":"3","Q05":"2","Q06":"3"},"rt":10461.399999976158,"radio_events":[3462.899999976158,7570.800000011921,9180.899999976158,9832.699999988079],"key_events":[],"mouse_events":[3462.899999976158,7570.800000011921,9180.899999976158,9832.699999988079,10460.800000011921],"survey":"map","page":2,"trial_type":"survey-map","trial_index":5,"time_elapsed":156474,"internal_node_id":"0.0-5.0","task_version":"prescreen-v0.3","browser_interactions":0},{"responses":{"Q07":"2","Q08":"4","Q09":"3"},"rt":14050.199999988079,"radio_events":[4817.5,8567.5,13371.399999976158],"key_events":[],"mouse_events":[4817.5,8567.5,12601.599999964237,13371.399999976158,14049.599999964237],"survey":"map","page":3,"trial_type":"survey-map","trial_index":6,"time_elapsed":170526,"internal_node_id":"0.0-6.0","task_version":"prescreen-v0.3","browser_interactions":0},{"responses":{"Q10":"3","Q11":"2","Q12":"3","Q13":"3","Q16":"0","Q14":"2","Q15":"1"},"rt":25478.099999964237,"radio_events":[3599.099999964237,5218.899999976158,7653.199999988079,12178.899999976158,15867.099999964237,18987,20273.099999964237,22273,24675.099999964237],"key_events":[],"mouse_events":[3599.099999964237,5218.899999976158,7653.199999988079,12178.899999976158,15867.099999964237,18987,20273.099999964237,22273,24675.099999964237,25477],"survey":"map","page":4,"trial_type":"survey-map","trial_index":7,"time_elapsed":196007,"internal_node_id":"0.0-7.0","task_version":"prescreen-v0.3","browser_interactions":0,"infrequency":0},{"view_history":[{"page_index":0,"viewing_time":1736.800000011921},{"page_index":1,"viewing_time":2493.900000035763}],"rt":4231.400000035763,"trial_type":"instructions","trial_index":8,"time_elapsed":200239,"internal_node_id":"0.0-8.0","task_version":"prescreen-v0.3"},{"responses":{"01":"No","02":"Yes","02_ages_12":"12","02_ages_13":"13","02_ages_14":"14","02_ages_15":"15","03":"Yes","03_ages_9":"9","03_ages_10":"10","03_ages_11":"11","04":"No","05":"No","06":"No"},"rt":35776.60000002384,"item_order":[0,1,2,3,4,5],"radio_events":[5659.600000023842,7797.400000035763,27439.30000001192,32409.200000047684,33803.30000001192,34915.30000001192],"checkbox_events":[18221.600000023842,19199.400000035763,20317.30000001192,21277.400000035763,29053.5,29481.400000035763,30121.400000035763],"key_events":[],"mouse_events":[0.30000001192092896,5659.600000023842,7797.400000035763,18221.600000023842,19199.400000035763,20317.30000001192,21277.400000035763,27047.400000035763,27439.30000001192,29053.5,29481.400000035763,30121.400000035763,32409.200000047684,33803.30000001192,34915.30000001192,35773.80000001192],"honeypot":0,"survey":"mace","page":1,"trial_type":"survey-mace","trial_index":9,"time_elapsed":236023,"internal_node_id":"0.0-9.0","task_version":"prescreen-v0.3","browser_interactions":0},{"responses":{"01":"No","02":"No","03":"Yes","03_ages_3":"3","03_ages_4":"4","03_ages_5":"5","03_ages_6":"6","03_ages_7":"7","03_ages_8":"8","03_ages_9":"9","03_ages_10":"10","03_ages_11":"11","04":"Yes","04_ages_4":"4","04_ages_5":"5","04_ages_6":"6","05":"Yes","05_ages_4":"4","05_ages_5":"5","05_ages_6":"6","06":"No","07":"No","08":"No"},"rt":32696.100000023842,"item_order":[0,1,2,3,4,5,6,7],"radio_events":[4492,5843.800000011921,6771.900000035763,20028,24762,29194,30394,31436.100000023842],"checkbox_events":[8496.100000023842,8829.900000035763,9193.900000035763,10341.900000035763,11048.100000023842,11634.100000023842,12046.100000023842,12794.100000023842,13408,21184.100000023842,21720.100000023842,22232,25580.100000023842,26006,26308.100000023842],"key_events":[],"mouse_events":[4492,5843.800000011921,6771.900000035763,8496.100000023842,8829.900000035763,9193.900000035763,9552.5,10341.900000035763,10686.100000023842,11048.100000023842,11634.100000023842,12046.100000023842,12794.100000023842,13408,20028,21184.100000023842,21720.100000023842,22232,24762,25580.100000023842,26006,26308.100000023842,29194,30394,31436.100000023842,32692.400000035763],"honeypot":0,"survey":"mace","page":2,"trial_type":"survey-mace","trial_index":10,"time_elapsed":268725,"internal_node_id":"0.0-10.0","task_version":"prescreen-v0.3","browser_interactions":0},{"responses":{"01":"No","02":"No","03":"No","04":"No"},"rt":10507.799999952316,"item_order":[0,1,2,3],"radio_events":[6797.599999964237,7711.399999976158,9221.599999964237,9917.599999964237],"checkbox_events":[],"key_events":[],"mouse_events":[6797.599999964237,7711.399999976158,9221.599999964237,9917.599999964237,10505.699999988079],"honeypot":0,"survey":"mace","page":3,"trial_type":"survey-mace","trial_index":11,"time_elapsed":279236,"internal_node_id":"0.0-11.0","task_version":"prescreen-v0.3","browser_interactions":0},{"responses":{"01":"No","02":"No"},"rt":6131.900000035763,"item_order":[0,1],"radio_events":[2590.800000011921,3454.7000000476837],"checkbox_events":[],"key_events":[],"mouse_events":[2590.800000011921,3454.7000000476837,6130.800000011921],"honeypot":0,"survey":"mace","page":4,"trial_type":"survey-mace","trial_index":12,"time_elapsed":285371,"internal_node_id":"0.0-12.0","task_version":"prescreen-v0.3","browser_interactions":0},{"responses":{"01":"No","02":"No","03":"No","04":"No","05":"No"},"rt":13406.699999988079,"item_order":[0,1,2,3,4],"radio_events":[5028.099999964237,6484.099999964237,9582.299999952316,11502,12694.199999988079],"checkbox_events":[],"key_events":[],"mouse_events":[5028.099999964237,6484.099999964237,9582.299999952316,11502,12694.199999988079,13404.199999988079],"honeypot":0,"survey":"mace","page":5,"trial_type":"survey-mace","trial_index":13,"time_elapsed":298781,"internal_node_id":"0.0-13.0","task_version":"prescreen-v0.3","browser_interactions":0},{"responses":{"01":"No","02":"No","03":"No","04":"Yes","04_ages_8":"8","04_ages_9":"9","05":"No"},"rt":21136.5,"item_order":[0,1,2,3,4],"radio_events":[9329.899999976158,11136.399999976158,14055.800000011921,16407.899999976158,20397.899999976158],"checkbox_events":[18099.899999976158,18483.80000001192],"key_events":[],"mouse_events":[9329.899999976158,11136.399999976158,12882,14055.800000011921,16407.899999976158,18099.899999976158,18483.80000001192,20397.899999976158,21134],"honeypot":0,"survey":"mace","page":6,"trial_type":"survey-mace","trial_index":14,"time_elapsed":319920,"internal_node_id":"0.0-14.0","task_version":"prescreen-v0.3","browser_interactions":0},{"responses":{"01":"No","02":"No","03":"No","04":"No","05":"No","06":"No","07":"No"},"rt":11788.300000011921,"item_order":[0,1,2,3,4,5,6],"radio_events":[4051,5079,6104.700000047684,7664.800000011921,9004.900000035763,10402.900000035763,11258.900000035763],"checkbox_events":[],"key_events":[],"mouse_events":[3622.7000000476837,4051,5079,6104.700000047684,7664.800000011921,9004.900000035763,10402.900000035763,11258.900000035763,11784.900000035763],"honeypot":0,"survey":"mace","page":7,"trial_type":"survey-mace","trial_index":15,"time_elapsed":331713,"internal_node_id":"0.0-15.0","task_version":"prescreen-v0.3","browser_interactions":0},{"responses":{"01":"No","02":"Yes","02_ages_10":"10","02_ages_11":"11","02_ages_12":"12","02_ages_13":"13","02_ages_14":"14","02_ages_15":"15","02_ages_16":"16","03":"Yes","03_ages_1":"1","03_ages_2":"2","03_ages_3":"3","03_ages_4":"4","03_ages_5":"5","03_ages_6":"6","03_ages_7":"7","03_ages_8":"8","03_ages_9":"9","03_ages_10":"10","03_ages_11":"11","03_ages_12":"12","03_ages_13":"13","03_ages_14":"14","03_ages_15":"15","03_ages_16":"16","04":"No"},"rt":46507,"item_order":[0,1,2,3],"radio_events":[9428.800000011921,10531,29896.700000047684,45230.80000001192],"checkbox_events":[15488.800000011921,15848.800000011921,16215,16894.900000035763,17232.80000001192,18334.100000023842,18710.700000047684,19144.80000001192,19584.700000047684,20414.80000001192,22820.900000035763,23234.600000023842,23792.900000035763,24184.80000001192,25282.700000047684,25712.80000001192,26730.700000047684,31196.80000001192,32372.600000023842,32704.900000035763,33114.700000047684,33656.90000003576,34092.90000003576,35770.80000001192,36656.80000001192,36734.90000003576,37136.90000003576,37560.80000001192,38530.80000001192,38946.80000001192,39566.90000003576,40058.700000047684,41062.60000002384,41408.80000001192,42288.80000001192],"key_events":[],"mouse_events":[9428.800000011921,10531,15488.800000011921,15848.800000011921,16215,16894.900000035763,17232.80000001192,18334.100000023842,18710.700000047684,19144.80000001192,19584.700000047684,19938.700000047684,20414.80000001192,22820.900000035763,23234.600000023842,23792.900000035763,24184.80000001192,24726.600000023842,25282.700000047684,25712.80000001192,26730.700000047684,29896.700000047684,31196.80000001192,31588.80000001192,31920.700000047684,32372.600000023842,32704.900000035763,33114.700000047684,33656.90000003576,34092.90000003576,34904.80000001192,35770.80000001192,36126.90000003576,36656.80000001192,36734.90000003576,37136.90000003576,37560.80000001192,38530.80000001192,38946.80000001192,39566.90000003576,40058.700000047684,40478.90000003576,41062.60000002384,41408.80000001192,41898.90000003576,42288.80000001192,44600.90000003576,45230.80000001192,46504.90000003576],"honeypot":0,"survey":"mace","page":8,"trial_type":"survey-mace","trial_index":16,"time_elapsed":378224,"internal_node_id":"0.0-16.0","task_version":"prescreen-v0.3","browser_interactions":0},{"responses":{"01":"Yes","01_ages_1":"1","01_ages_2":"2","01_ages_3":"3","01_ages_4":"4","01_ages_5":"5","01_ages_6":"6","01_ages_7":"7","01_ages_8":"8","01_ages_9":"9","01_ages_10":"10","01_ages_11":"11","01_ages_12":"12","01_ages_13":"13","01_ages_14":"14","01_ages_15":"15","01_ages_16":"16","01_ages_17":"17","01_ages_18":"18","02":"Yes","02_ages_1":"1","02_ages_2":"2","02_ages_3":"3","02_ages_4":"4","02_ages_5":"5","02_ages_6":"6","02_ages_7":"7","02_ages_8":"8","02_ages_9":"9","02_ages_10":"10","02_ages_11":"11","02_ages_12":"12","02_ages_13":"13","02_ages_14":"14","02_ages_15":"15","02_ages_16":"16","02_ages_17":"17","02_ages_18":"18","03":"Yes","03_ages_1":"1","03_ages_2":"2","03_ages_3":"3","03_ages_4":"4","03_ages_5":"5","03_ages_6":"6","03_ages_7":"7","03_ages_8":"8","03_ages_9":"9","03_ages_10":"10","03_ages_11":"11","03_ages_12":"12","03_ages_13":"13","03_ages_14":"14","03_ages_15":"15","03_ages_16":"16","03_ages_17":"17","03_ages_18":"18","04":"Yes","04_ages_1":"1","04_ages_2":"2","04_ages_3":"3","04_ages_4":"4","04_ages_5":"5","04_ages_6":"6","04_ages_7":"7","04_ages_8":"8","04_ages_9":"9","04_ages_10":"10","04_ages_11":"11","04_ages_12":"12","04_ages_13":"13","04_ages_14":"14","04_ages_15":"15","04_ages_16":"16","04_ages_17":"17","04_ages_18":"18"},"rt":75340.5,"item_order":[0,1,2,3],"radio_events":[24656.399999976158,39380.30000001192,54288.5,55220.39999997616],"checkbox_events":[28780.69999998808,29322.5,29868.399999976158,30418.399999976158,30946.399999976158,31272.399999976158,31908.5,32532.599999964237,32900.39999997616,33334.30000001192,33846.39999997616,34262.39999997616,34796.19999998808,35894.5,36244.39999997616,36718.5,37206.30000001192,37774.39999997616,40534.5,40884.5,41286.30000001192,41926.30000001192,42316.39999997616,42676.39999997616,43042.39999997616,45136.39999997616,45546.39999997616,46376.5,47828.39999997616,48240.39999997616,48744.39999997616,49194.39999997616,49668.5,50128.69999998808,51106.39999997616,52182.39999997616,56797.80000001192,57164.39999997616,57690.30000001192,58124.39999997616,59154.39999997616,59510.5,59934.30000001192,60382.30000001192,60796.39999997616,61204.39999997616,61976.39999997616,62326.39999997616,63154.39999997616,63830.39999997616,64388.30000001192,64892.19999998808,65332.30000001192,65682.39999997616,66534.39999997616,66932.39999997616,67358.39999997616,68078.30000001192,68624.30000001192,69336.39999997616,69736.59999996424,70186.39999997616,70620.39999997616,70980.30000001192,71418.30000001192,71942.30000001192,72384.5,72847,73288.5,73690.39999997616,74078.39999997616,74506.30000001192],"key_events":[],"mouse_events":[24656.399999976158,28780.69999998808,29322.5,29868.399999976158,30418.399999976158,30946.399999976158,31272.399999976158,31908.5,32532.599999964237,32900.39999997616,33334.30000001192,33846.39999997616,34262.39999997616,34796.19999998808,35158.39999997616,35894.5,36244.39999997616,36718.5,37206.30000001192,37774.39999997616,39380.30000001192,40534.5,40884.5,41286.30000001192,41926.30000001192,42316.39999997616,42676.39999997616,43042.39999997616,43416.30000001192,43784.30000001192,45136.39999997616,45546.39999997616,46050.19999998808,46376.5,47828.39999997616,48240.39999997616,48744.39999997616,49194.39999997616,49668.5,50128.69999998808,50582.39999997616,51106.39999997616,51592.30000001192,52182.39999997616,54288.5,55220.39999997616,56797.80000001192,57164.39999997616,57690.30000001192,58124.39999997616,58580.30000001192,59154.39999997616,59510.5,59934.30000001192,60382.30000001192,60796.39999997616,61204.39999997616,61636.39999997616,61976.39999997616,62326.39999997616,62714.09999996424,63154.39999997616,63524.30000001192,63830.39999997616,64388.30000001192,64892.19999998808,65332.30000001192,65682.39999997616,66534.39999997616,66932.39999997616,67358.39999997616,68078.30000001192,68624.30000001192,68992.39999997616,69336.39999997616,69736.59999996424,70186.39999997616,70620.39999997616,70980.30000001192,71418.30000001192,71942.30000001192,72384.5,72847,73288.5,73690.39999997616,74078.39999997616,74506.30000001192,75338.5],"honeypot":0,"survey":"mace","page":9,"trial_type":"survey-mace","trial_index":17,"time_elapsed":453568,"internal_node_id":"0.0-17.0","task_version":"prescreen-v0.3","browser_interactions":0},{"responses":{"01":"No","02":"No","03":"Yes","03_ages_14":"14","03_ages_15":"15","03_ages_16":"16","03_ages_17":"17","03_ages_18":"18","04":"No","05":"Yes","05_ages_10":"10","05_ages_11":"11","05_ages_12":"12","05_ages_13":"13","05_ages_14":"14","05_ages_15":"15","05_ages_16":"16","06":"Yes","06_ages_17":"17","07":"Yes","07_ages_1":"1","07_ages_2":"2","07_ages_3":"3","07_ages_4":"4","07_ages_5":"5","07_ages_6":"6","07_ages_7":"7","07_ages_8":"8","07_ages_9":"9","07_ages_10":"10","07_ages_11":"11","07_ages_12":"12","07_ages_13":"13","07_ages_14":"14","07_ages_15":"15","07_ages_16":"16","07_ages_17":"17","07_ages_18":"18","08":"Yes","08_ages_1":"1","08_ages_2":"2","08_ages_3":"3","08_ages_4":"4","08_ages_5":"5","08_ages_6":"6","08_ages_7":"7","08_ages_8":"8","08_ages_9":"9","08_ages_10":"10","08_ages_11":"11","08_ages_12":"12","08_ages_13":"13","08_ages_14":"14","08_ages_15":"15"},"rt":49682,"item_order":[0,1,2,3,4,5,6,7],"radio_events":[2902.099999964237,3694.2999999523163,5484.099999964237,11796.199999988079,13501.699999988079,24342.099999964237,29114,40304.09999996424],"checkbox_events":[6466.199999988079,6938,8069.899999976158,9064.199999988079,9720.099999964237,19522.099999964237,19876.099999964237,20980.099999964237,21410.19999998808,21790.19999998808,22218.099999964237,22894.099999964237,25886,30672.099999964237,31020.19999998808,31540.099999964237,32052.19999998808,32562,33008,33402.09999996424,33754.09999996424,34594.19999998808,35334.09999996424,35654.09999996424,36538,36870.09999996424,37378,37854.89999997616,38318.19999998808,38744.09999996424,39294.09999996424,41558.09999996424,42012,42382,42810.09999996424,43238.09999996424,44066.19999998808,44618.19999998808,45126,45616.09999996424,46036.09999996424,46444.09999996424,46914,47400.09999996424,48380.09999996424,48853.89999997616],"key_events":[],"mouse_events":[2902.099999964237,3694.2999999523163,5484.099999964237,6466.199999988079,6938,7481.899999976158,8069.899999976158,8456.099999964237,9064.199999988079,9456,9720.099999964237,11796.199999988079,13501.699999988079,19522.099999964237,19876.099999964237,20378.099999964237,20980.099999964237,21410.19999998808,21790.19999998808,22218.099999964237,22894.099999964237,24342.099999964237,25886,29114,30672.099999964237,31020.19999998808,31540.099999964237,32052.19999998808,32562,33008,33402.09999996424,33754.09999996424,34594.19999998808,35334.09999996424,35654.09999996424,36156.19999998808,36538,36870.09999996424,37378,37854.89999997616,38318.19999998808,38744.09999996424,39294.09999996424,40304.09999996424,41558.09999996424,42012,42382,42810.09999996424,43238.09999996424,43675.89999997616,44066.19999998808,44618.19999998808,45126,45616.09999996424,46036.09999996424,46444.09999996424,46914,47400.09999996424,48380.09999996424,48853.89999997616,49678.299999952316],"honeypot":0,"survey":"mace","page":10,"trial_type":"survey-mace","trial_index":18,"time_elapsed":503254,"internal_node_id":"0.0-18.0","task_version":"prescreen-v0.3","browser_interactions":0,"instructed":0},{"rt":2332.699999988079,"trial_type":"mental-health-alert","trial_index":19,"time_elapsed":505589,"internal_node_id":"0.0-19.0","task_version":"prescreen-v0.3","interactions":"[]"}]