[{"view_history":[{"page_index":0,"viewing_time":4344.5},{"page_index":1,"viewing_time":5062.20000000298},{"page_index":2,"viewing_time":6141.70000000298},{"page_index":3,"viewing_time":3961}],"rt":19510.40000000596,"trial_type":"instructions","trial_index":0,"time_elapsed":19520,"internal_node_id":"0.0-0.0","task_version":"prescreen-v0.3"},{"rt":27016.20000000298,"responses":{"age":"37","gender-categorical":"Male","gender-free-response":"","ethnicity":"Not Hispanic or Latino","race":["White"],"education":"Master degree or higher"},"trial_type":"survey-demo","trial_index":1,"time_elapsed":46543,"internal_node_id":"0.0-1.0","task_version":"prescreen-v0.3"},{"responses":{"Q05":"2","Q08":"2","Q21":"3","Q03":"0","Q18":"1","Q17":"2","Q14":"3","Q12":"2","Q06":"0","Q19":"2","Q10":"3","Q07":"0","Q15":"3","Q16":"2","Q04":"1","Q13":"2","Q01":"2","Q20":"2","Q09":"3","Q11":"2","Q02":"2"},"rt":174044.20000000298,"item_order":[4,7,20,2,17,16,13,11,5,18,9,6,14,15,3,12,0,19,8,10,1],"radio_events":[26676.10000000894,33066.10000000894,37859.5,43855.60000000894,51471.60000000894,56680.80000001192,68661.80000001192,75220.40000000596,83511.80000001192,90104.40000000596,100240.5,109521.70000000298,113234,127262.70000000298,136791,145803.20000000298,150190.60000000894,155443.70000000298,156569,160900.5,168314.20000000298,173027.30000001192],"key_events":[],"mouse_events":[26676.10000000894,33066.10000000894,37859.5,43855.60000000894,51471.60000000894,56680.80000001192,68661.80000001192,75220.40000000596,83511.80000001192,90104.40000000596,100240.5,109521.70000000298,111197.60000000894,113234,127262.70000000298,136791,145803.20000000298,150190.60000000894,155443.70000000298,156569,160900.5,168314.20000000298,173027.30000001192,174040.60000000894],"straightlining":0.5238095238095238,"zigzagging":0.7,"honeypot":0,"survey":"sns","trial_type":"survey-template","trial_index":2,"time_elapsed":220600,"internal_node_id":"0.0-2.0","task_version":"prescreen-v0.3","browser_interactions":0,"infrequency":0},{"responses":{"Q06":"3","Q03":"3","Q01":"3","Q04":"3","Q09":"3","Q02":"2","Q11":"3","Q12":"2","Q13":"0","Q07":"2","Q05":"3","Q10":"2","Q08":"3"},"rt":87180.09999999404,"item_order":[5,2,0,3,8,1,10,11,12,6,4,9,7],"radio_events":[10979.90000000596,15997.40000000596,18349,26359.5,34391.79999999702,45113.09999999404,49567,59209.5,65498.29999999702,70717,77007,81731,86366.40000000596],"key_events":[],"mouse_events":[10979.90000000596,15997.40000000596,18349,26359.5,34391.79999999702,45113.09999999404,49567,59209.5,65498.29999999702,70717,77007,81731,86366.40000000596,87178.09999999404],"straightlining":0.6153846153846154,"zigzagging":0.5,"honeypot":0,"survey":"bisbas","trial_type":"survey-template","trial_index":3,"time_elapsed":307789,"internal_node_id":"0.0-3.0","task_version":"prescreen-v0.3","browser_interactions":0,"infrequency":0},{"responses":{"Q01":"2","Q02":"1","Q03":"2"},"rt":40199.80000001192,"radio_events":[14784.5,29769.80000001192,39467.10000000894],"key_events":[],"mouse_events":[14784.5,29769.80000001192,39467.10000000894,40198.60000000894],"survey":"map","page":1,"trial_type":"survey-map","trial_index":4,"time_elapsed":347996,"internal_node_id":"0.0-4.0","task_version":"prescreen-v0.3","browser_interactions":0},{"responses":{"Q04":"1","Q05":"2","Q06":"2"},"rt":22888.39999999106,"radio_events":[11951.79999999702,17138.39999999106,22054.70000000298],"key_events":[],"mouse_events":[11951.79999999702,17138.39999999106,22054.70000000298,22887.29999999702],"survey":"map","page":2,"trial_type":"survey-map","trial_index":5,"time_elapsed":370890,"internal_node_id":"0.0-5.0","task_version":"prescreen-v0.3","browser_interactions":0},{"responses":{"Q07":"1","Q08":"4","Q09":"2"},"rt":25205.59999999404,"radio_events":[9567.39999999106,17272.70000000298,24541.20000000298],"key_events":[],"mouse_events":[9567.39999999106,17272.70000000298,24541.20000000298,25204.70000000298],"survey":"map","page":3,"trial_type":"survey-map","trial_index":6,"time_elapsed":396101,"internal_node_id":"0.0-6.0","task_version":"prescreen-v0.3","browser_interactions":0},{"responses":{"Q10":"1","Q11":"0","Q12":"2","Q13":"2","Q16":"0","Q14":"1","Q15":"1"},"rt":55863.79999999702,"radio_events":[10558.09999999404,15822.699999988079,23010.69999998808,24439.5,35982,40606.59999999404,50562.89999999106,55051.79999999702],"key_events":[],"mouse_events":[10558.09999999404,15822.699999988079,23010.69999998808,24439.5,35982,40606.59999999404,50562.89999999106,55051.79999999702,55861.59999999404],"survey":"map","page":4,"trial_type":"survey-map","trial_index":7,"time_elapsed":451972,"internal_node_id":"0.0-7.0","task_version":"prescreen-v0.3","browser_interactions":0,"infrequency":0},{"view_history":[{"page_index":0,"viewing_time":4729.300000011921},{"page_index":1,"viewing_time":7357.0999999940395}],"rt":12087.5,"trial_type":"instructions","trial_index":8,"time_elapsed":464064,"internal_node_id":"0.0-8.0","task_version":"prescreen-v0.3"},{"responses":{"01":"No","02":"Yes","02_ages_9":"9","02_ages_10":"10","02_ages_11":"11","02_ages_12":"12","02_ages_13":"13","02_ages_14":"14","02_ages_15":"15","03":"Yes","03_ages_5":"5","03_ages_6":"6","03_ages_7":"7","03_ages_8":"8","03_ages_9":"9","03_ages_10":"10","03_ages_11":"11","03_ages_12":"12","03_ages_13":"13","04":"No","05":"No","06":"Yes","06_ages_5":"5","06_ages_6":"6","06_ages_7":"7","06_ages_8":"8","06_ages_9":"9","06_ages_10":"10","06_ages_11":"11","06_ages_12":"12","06_ages_13":"13"},"rt":74136.70000000298,"item_order":[0,1,2,3,4,5],"radio_events":[24845.10000000894,29254.60000000894,49437,60979.80000001192,63250.70000000298,67077.10000000894],"checkbox_events":[38772.60000000894,39739.5,40347,40909.60000000894,41383.40000000596,41865.80000001192,44048.20000000298,53284.70000000298,53823.80000001192,54386.30000001192,54893.5,55376.70000000298,55883.5,56412,56884.60000000894,57357.10000000894,68415.90000000596,68899.60000000894,69371.30000001192,69844.80000001192,70316.90000000596,70856.70000000298,71577.10000000894,72488.40000000596,72983.40000000596],"key_events":[],"mouse_events":[0.10000000894069672,24845.10000000894,29254.60000000894,38772.60000000894,39739.5,40347,40909.60000000894,41383.40000000596,41865.80000001192,44048.20000000298,49437,53284.70000000298,53823.80000001192,54386.30000001192,54893.5,55376.70000000298,55883.5,56412,56884.60000000894,57357.10000000894,60979.80000001192,63250.70000000298,67077.10000000894,68415.90000000596,68899.60000000894,69371.30000001192,69844.80000001192,70316.90000000596,70856.70000000298,71577.10000000894,72488.40000000596,72983.40000000596,74131.30000001192],"honeypot":0,"survey":"mace","page":1,"trial_type":"survey-mace","trial_index":9,"time_elapsed":538210,"internal_node_id":"0.0-9.0","task_version":"prescreen-v0.3","browser_interactions":2},{"responses":{"01":"Yes","01_ages_11":"11","01_ages_12":"12","01_ages_13":"13","02":"No","03":"Yes","03_ages_11":"11","03_ages_12":"12","03_ages_13":"13","04":"No","05":"Yes","05_ages_6":"6","05_ages_7":"7","05_ages_8":"8","05_ages_9":"9","05_ages_10":"10","05_ages_11":"11","05_ages_12":"12","05_ages_13":"13","06":"Yes","06_ages_9":"9","06_ages_10":"10","06_ages_11":"11","06_ages_12":"12","06_ages_13":"13","06_ages_14":"14","07":"No","08":"No"},"rt":58146.20000000298,"item_order":[0,1,2,3,4,5,6,7],"radio_events":[5307.5,21780.40000000596,24062.40000000596,32623.40000000596,35009.30000001192,47080.30000001192,53942.10000000894,57340.20000000298],"checkbox_events":[10405.10000000894,11024.20000000298,11518.20000000298,25164.70000000298,25615.40000000596,26245.5,36685.40000000596,37169.10000000894,37686.80000001192,38148,38586.80000001192,39081.70000000298,40049.10000000894,40566.40000000596,49014,49712.30000001192,50095.40000000596,51084.90000000596,51524.10000000894,52041.80000001192],"key_events":[],"mouse_events":[5307.5,10405.10000000894,11024.20000000298,11518.20000000298,21780.40000000596,24062.40000000596,25164.70000000298,25615.40000000596,26245.5,32623.40000000596,35009.30000001192,36685.40000000596,37169.10000000894,37686.80000001192,38148,38586.80000001192,39081.70000000298,40049.10000000894,40566.40000000596,47080.30000001192,49014,49712.30000001192,50095.40000000596,50488.5,51084.90000000596,51524.10000000894,52041.80000001192,53942.10000000894,57340.20000000298,58139.40000000596],"honeypot":0,"survey":"mace","page":2,"trial_type":"survey-mace","trial_index":10,"time_elapsed":596364,"internal_node_id":"0.0-10.0","task_version":"prescreen-v0.3","browser_interactions":0},{"responses":{"01":"Yes","01_ages_5":"5","01_ages_6":"6","01_ages_7":"7","01_ages_8":"8","01_ages_9":"9","01_ages_10":"10","01_ages_11":"11","01_ages_12":"12","01_ages_13":"13","01_ages_14":"14","02":"No","03":"No","04":"No"},"rt":28306.69999998808,"item_order":[0,1,2,3],"radio_events":[12429.29999999702,22913.69999998808,27009.19999998808,27774],"checkbox_events":[14038,14510.89999999106,14993.39999999106,15421.79999999702,15849,16265.29999999702,16760.59999999404,17334.59999999404,18537.69999998808,19021],"key_events":[],"mouse_events":[12429.29999999702,14038,14510.89999999106,14993.39999999106,15421.79999999702,15849,16265.29999999702,16760.59999999404,17334.59999999404,18537.69999998808,19021,22913.69999998808,27009.19999998808,27774,28302.89999999106],"honeypot":0,"survey":"mace","page":3,"trial_type":"survey-mace","trial_index":11,"time_elapsed":624677,"internal_node_id":"0.0-11.0","task_version":"prescreen-v0.3","browser_interactions":0},{"responses":{"01":"No","02":"No"},"rt":9792,"item_order":[0,1],"radio_events":[7663.5999999940395,9170.29999999702],"checkbox_events":[],"key_events":[],"mouse_events":[7663.5999999940395,9170.29999999702,9789.699999988079],"honeypot":0,"survey":"mace","page":4,"trial_type":"survey-mace","trial_index":12,"time_elapsed":634474,"internal_node_id":"0.0-12.0","task_version":"prescreen-v0.3","browser_interactions":0},{"responses":{"01":"No","02":"No","03":"No","04":"No","05":"No"},"rt":21337.40000000596,"item_order":[0,1,2,3,4],"radio_events":[6235.9000000059605,9655.90000000596,14594.70000000298,18093.59999999404,20658.20000000298],"checkbox_events":[],"key_events":[],"mouse_events":[6235.9000000059605,9655.90000000596,14594.70000000298,18093.59999999404,20658.20000000298,21333.20000000298],"honeypot":0,"survey":"mace","page":5,"trial_type":"survey-mace","trial_index":13,"time_elapsed":655827,"internal_node_id":"0.0-13.0","task_version":"prescreen-v0.3","browser_interactions":0},{"responses":{"01":"Yes","01_ages_5":"5","01_ages_6":"6","01_ages_7":"7","01_ages_8":"8","01_ages_9":"9","01_ages_10":"10","01_ages_11":"11","01_ages_12":"12","01_ages_13":"13","01_ages_14":"14","01_ages_15":"15","01_ages_16":"16","02":"Yes","02_ages_5":"5","02_ages_6":"6","02_ages_7":"7","02_ages_8":"8","02_ages_9":"9","02_ages_10":"10","02_ages_11":"11","02_ages_12":"12","02_ages_13":"13","02_ages_14":"14","02_ages_15":"15","02_ages_16":"16","03":"Yes","03_ages_8":"8","03_ages_9":"9","03_ages_10":"10","03_ages_11":"11","03_ages_12":"12","03_ages_13":"13","03_ages_14":"14","03_ages_15":"15","03_ages_16":"16","04":"Yes","04_ages_5":"5","04_ages_6":"6","04_ages_7":"7","04_ages_8":"8","04_ages_9":"9","04_ages_10":"10","04_ages_11":"11","04_ages_12":"12","04_ages_13":"13","04_ages_14":"14","04_ages_15":"15","04_ages_16":"16","05":"Yes","05_ages_12":"12","05_ages_13":"13","05_ages_14":"14","05_ages_15":"15","05_ages_16":"16"},"rt":62590.59999999404,"item_order":[0,1,2,3,4],"radio_events":[8630.5,24943.09999999404,35348.79999999702,45350.59999999404,55801.29999999702],"checkbox_events":[9946.79999999702,10666.59999999404,11039.40000000596,11465.70000000298,12365.59999999404,12838.29999999702,13277,13703.90000000596,14187.79999999702,14648,15076.79999999702,15616.90000000596,16145.40000000596,21038.59999999404,25978,26348.40000000596,26731.59999999404,27113.20000000298,27845.59999999404,28284.59999999404,28734.29999999702,29318,29858.79999999702,30285.90000000596,30736.90000000596,31334.79999999702,38723.90000000596,39365.70000000298,40276.79999999702,40704.5,41198.70000000298,41672,42099.29999999702,42695.59999999404,43213.09999999404,47117,47723.29999999702,48297.09999999404,48792,49297.70000000298,49771.79999999702,50233.09999999404,50728.09999999404,51223.09999999404,51661.09999999404,52065.79999999702,52538.5,58805.5,59255.5,59919.5,60369.40000000596,60751.79999999702],"key_events":[],"mouse_events":[8630.5,9946.79999999702,10666.59999999404,11039.40000000596,11465.70000000298,12365.59999999404,12838.29999999702,13277,13703.90000000596,14187.79999999702,14648,15076.79999999702,15616.90000000596,16145.40000000596,21038.59999999404,24943.09999999404,25978,26348.40000000596,26731.59999999404,27113.20000000298,27845.59999999404,28284.59999999404,28734.29999999702,29318,29858.79999999702,30285.90000000596,30736.90000000596,31334.79999999702,35348.79999999702,38723.90000000596,39365.70000000298,40276.79999999702,40704.5,41198.70000000298,41672,42099.29999999702,42695.59999999404,43213.09999999404,45350.59999999404,47117,47723.29999999702,48297.09999999404,48792,49297.70000000298,49771.79999999702,50233.09999999404,50728.09999999404,51223.09999999404,51661.09999999404,52065.79999999702,52538.5,55801.29999999702,58805.5,59255.5,59919.5,60369.40000000596,60751.79999999702,62585.70000000298],"honeypot":0,"survey":"mace","page":6,"trial_type":"survey-mace","trial_index":14,"time_elapsed":718449,"internal_node_id":"0.0-14.0","task_version":"prescreen-v0.3","browser_interactions":0},{"responses":{"01":"No","02":"No","03":"Yes","03_ages_9":"9","03_ages_10":"10","03_ages_11":"11","03_ages_12":"12","03_ages_13":"13","03_ages_14":"14","03_ages_15":"15","04":"No","05":"No","06":"No","07":"No"},"rt":32979.80000001192,"item_order":[0,1,2,3,4,5,6],"radio_events":[5916.70000000298,9607,12183.300000011921,25199.70000000298,29597.70000000298,31633.90000000596,32467.5],"checkbox_events":[18133.70000000298,18742,19203.40000000596,19664.60000000894,20114,20699.70000000298,21272.5],"key_events":[],"mouse_events":[5916.70000000298,9607,12183.300000011921,18133.70000000298,18742,19203.40000000596,19664.60000000894,20114,20699.70000000298,21272.5,25199.70000000298,29597.70000000298,31633.90000000596,32467.5,32973.40000000596],"honeypot":0,"survey":"mace","page":7,"trial_type":"survey-mace","trial_index":15,"time_elapsed":751437,"internal_node_id":"0.0-15.0","task_version":"prescreen-v0.3","browser_interactions":0},{"responses":{"01":"Yes","01_ages_5":"5","01_ages_6":"6","01_ages_7":"7","01_ages_8":"8","01_ages_9":"9","01_ages_10":"10","01_ages_11":"11","01_ages_12":"12","01_ages_13":"13","01_ages_14":"14","01_ages_15":"15","01_ages_16":"16","01_ages_17":"17","01_ages_18":"18","02":"Yes","02_ages_5":"5","02_ages_6":"6","02_ages_7":"7","02_ages_8":"8","02_ages_9":"9","02_ages_10":"10","02_ages_11":"11","02_ages_12":"12","02_ages_13":"13","02_ages_14":"14","02_ages_15":"15","02_ages_16":"16","02_ages_17":"17","02_ages_18":"18","03":"Yes","03_ages_5":"5","03_ages_6":"6","03_ages_7":"7","03_ages_8":"8","03_ages_9":"9","03_ages_10":"10","03_ages_11":"11","03_ages_12":"12","03_ages_13":"13","03_ages_14":"14","03_ages_15":"15","04":"Yes","04_ages_5":"5","04_ages_6":"6","04_ages_7":"7","04_ages_8":"8","04_ages_9":"9","04_ages_10":"10","04_ages_11":"11","04_ages_12":"12","04_ages_13":"13","04_ages_14":"14","04_ages_15":"15"},"rt":75377.90000000596,"item_order":[0,1,2,3],"radio_events":[16784,33771.5,46606.79999999702,47552.70000000298,66587.70000000298],"checkbox_events":[24725.20000000298,25154.10000000894,25603.60000000894,26042.60000000894,26504,26954.10000000894,27788.40000000596,28224.79999999702,28809.29999999702,29237,29721.20000000298,30215.70000000298,30722.5,31284.5,34761.70000000298,35571.29999999702,35999.10000000894,36460.40000000596,36854.40000000596,37247.60000000894,38169.70000000298,38979.40000000596,39544.40000000596,40015.29999999702,40441.70000000298,40937,41612.79999999702,42163.79999999702,50995.20000000298,51793.79999999702,52469.20000000298,52873.79999999702,53301.60000000894,54144.5,54572.60000000894,55011.5,55483.29999999702,55979,56484,57148,58083.90000000596,60703.90000000596,68286.20000000298,68690.29999999702,69107.10000000894,69557,70030,70479.79999999702,70896.60000000894,71335.29999999702,71761.90000000596,72280.20000000298,73583.90000000596,74462.60000000894],"key_events":[],"mouse_events":[16784,24725.20000000298,25154.10000000894,25603.60000000894,26042.60000000894,26504,26954.10000000894,27788.40000000596,28224.79999999702,28809.29999999702,29237,29721.20000000298,30215.70000000298,30722.5,31284.5,33771.5,34761.70000000298,35155.10000000894,35571.29999999702,35999.10000000894,36460.40000000596,36854.40000000596,37247.60000000894,37651.5,38169.70000000298,38979.40000000596,39544.40000000596,40015.29999999702,40441.70000000298,40937,41612.79999999702,42163.79999999702,46606.79999999702,47552.70000000298,50995.20000000298,51793.79999999702,52469.20000000298,52873.79999999702,53301.60000000894,54144.5,54572.60000000894,55011.5,55483.29999999702,55979,56484,57148,58083.90000000596,60703.90000000596,66587.70000000298,68286.20000000298,68690.29999999702,69107.10000000894,69557,70030,70479.79999999702,70896.60000000894,71335.29999999702,71761.90000000596,72280.20000000298,73583.90000000596,74462.60000000894,75374],"honeypot":0,"survey":"mace","page":8,"trial_type":"survey-mace","trial_index":16,"time_elapsed":826823,"internal_node_id":"0.0-16.0","task_version":"prescreen-v0.3","browser_interactions":0},{"responses":{"01":"No","02":"No","03":"No","04":"Yes","04_ages_1":"1","04_ages_2":"2","04_ages_3":"3","04_ages_4":"4","04_ages_5":"5","04_ages_6":"6","04_ages_7":"7","04_ages_8":"8","04_ages_9":"9","04_ages_10":"10","04_ages_11":"11","04_ages_12":"12","04_ages_13":"13","04_ages_14":"14","04_ages_15":"15","04_ages_16":"16","04_ages_17":"17","04_ages_18":"18"},"rt":55140.79999999702,"item_order":[0,1,2,3],"radio_events":[13985.29999999702,17584.79999999702,27867.89999999106,33683.39999999106],"checkbox_events":[39939.09999999404,41075.5,42234.09999999404,42852.39999999106,43336.69999998808,43798.19999998808,44248.09999999404,44708.79999999702,45495.69999998808,45980.5,46441.59999999404,47004.19999998808,48038.69999998808,48522.5,49006.5,49524,50299.89999999106,51008],"key_events":[],"mouse_events":[13985.29999999702,17584.79999999702,27867.89999999106,33683.39999999106,39939.09999999404,40377.79999999702,41075.5,41862.19999998808,42234.09999999404,42852.39999999106,43336.69999998808,43798.19999998808,44248.09999999404,44708.79999999702,45495.69999998808,45980.5,46441.59999999404,47004.19999998808,47397.59999999404,48038.69999998808,48522.5,49006.5,49524,50299.89999999106,51008,55137.09999999404],"honeypot":0,"survey":"mace","page":9,"trial_type":"survey-mace","trial_index":17,"time_elapsed":881971,"internal_node_id":"0.0-17.0","task_version":"prescreen-v0.3","browser_interactions":0},{"responses":{"01":"No","02":"No","03":"No","04":"No","05":"No","06":"Yes","06_ages_17":"17","07":"No","08":"No"},"rt":33351.19999998808,"item_order":[0,1,2,3,4,5,6,7],"radio_events":[5649.699999988079,7079.399999991059,9844.39999999106,14716.29999999702,20026.29999999702,22478.79999999702,29453.69999998808,32728.29999999702],"checkbox_events":[23514.5],"key_events":[],"mouse_events":[5649.699999988079,7079.399999991059,9844.39999999106,14716.29999999702,20026.29999999702,22478.79999999702,23514.5,29453.69999998808,32728.29999999702,33345.59999999404],"honeypot":0,"survey":"mace","page":10,"trial_type":"survey-mace","trial_index":18,"time_elapsed":915330,"internal_node_id":"0.0-18.0","task_version":"prescreen-v0.3","browser_interactions":0,"instructed":0},{"rt":9361.79999999702,"trial_type":"mental-health-alert","trial_index":19,"time_elapsed":924696,"internal_node_id":"0.0-19.0","task_version":"prescreen-v0.3","interactions":"[{\"event\":\"blur\",\"trial\":9,\"time\":467459},{\"event\":\"focus\",\"trial\":9,\"time\":469260}]"}]