[{"view_history":[{"page_index":0,"viewing_time":6122},{"page_index":1,"viewing_time":5152},{"page_index":2,"viewing_time":5230},{"page_index":3,"viewing_time":1768}],"rt":18273,"trial_type":"instructions","trial_index":0,"time_elapsed":18279,"internal_node_id":"0.0-0.0","task_version":"prescreen-v0.3"},{"rt":25014,"responses":{"age":"27","gender-categorical":"Male","gender-free-response":"","ethnicity":"Not Hispanic or Latino","race":["White"],"education":"Bachelor degree","siblings":"1"},"trial_type":"survey-demo","trial_index":1,"time_elapsed":43301,"internal_node_id":"0.0-1.0","task_version":"prescreen-v0.3"},{"responses":{"Q06":"0","Q01":"1","Q03":"1","Q09":"0","Q13":"0","Q18":"0","Q07":"0","Q16":"0","Q05":"0","Q04":"1","Q14":"0","Q08":"0","Q20":"1","Q17":"0","Q10":"0","Q02":"0","Q15":"0","Q21":"3","Q19":"0","Q11":"0","Q12":"0"},"rt":135379.00000000003,"item_order":[5,0,2,8,12,17,6,15,4,3,13,7,19,16,9,1,14,20,18,10,11],"radio_events":[13756,18024.000000000007,22957,29540,32790,35990,44473.000000000015,51374,57774,64156,70325,81058,83808,89025,98475,103293,106726,112744,117527,125660,128944,134627],"key_events":[],"mouse_events":[13756,18024.000000000007,22090,22957,29540,32790,35191,35990,44473.000000000015,50890,51374,57774,64156,69409,70325,81058,83808,89025,97242,97842,98241,98475,103293,106141.00000000003,106726,112744,117527,125010.00000000003,125660,128944,134110,134627,135360],"straightlining":0.7619047619047619,"zigzagging":0.4,"honeypot":0,"survey":"sns","trial_type":"survey-template","trial_index":2,"time_elapsed":178681,"internal_node_id":"0.0-2.0","task_version":"prescreen-v0.3","browser_interactions":0,"infrequency":0},{"responses":{"Q05":"3","Q04":"3","Q08":"3","Q06":"3","Q10":"3","Q01":"2","Q13":"0","Q03":"3","Q07":"2","Q09":"2","Q11":"2","Q02":"3","Q12":"1"},"rt":133192,"item_order":[4,3,7,5,9,0,12,2,6,8,10,1,11],"radio_events":[16128,24328,31130,35096,43779,44662,52613,74899,84813,88314,88964,95130,106731,110564,111849,129848],"key_events":[],"mouse_events":[16128,23395.00000000003,24328,31130,35096,43779,44662,52613,65746.00000000003,74899,79897,84080,84813,88314,88964,95130,106364,106731,110564,111282,111849,121515,129848,133182],"straightlining":0.5384615384615384,"zigzagging":0.3333333333333333,"honeypot":0,"survey":"bisbas","trial_type":"survey-template","trial_index":3,"time_elapsed":311870,"internal_node_id":"0.0-3.0","task_version":"prescreen-v0.3","browser_interactions":6,"infrequency":0},{"responses":{"Q01":"2","Q02":"2","Q03":"3"},"rt":34665,"radio_events":[13119,13952,24852,33641],"key_events":[],"mouse_events":[12402,13119,13535.000000000058,13952,24852,33641,34652],"survey":"map","page":1,"trial_type":"survey-map","trial_index":4,"time_elapsed":346537,"internal_node_id":"0.0-4.0","task_version":"prescreen-v0.3","browser_interactions":0},{"responses":{"Q04":"3","Q05":"4","Q06":"3"},"rt":16992.00000000006,"radio_events":[6418,10168,15268],"key_events":[],"mouse_events":[6418,10168,13468.000000000058,14401,14985,15268,16985],"survey":"map","page":2,"trial_type":"survey-map","trial_index":5,"time_elapsed":363532,"internal_node_id":"0.0-5.0","task_version":"prescreen-v0.3","browser_interactions":0},{"responses":{"Q07":"3","Q08":"4","Q09":"3"},"rt":33380,"radio_events":[10908.000000000058,15673,19841,24925.00000000006,32758],"key_events":[],"mouse_events":[10324.000000000058,10908.000000000058,15673,19391,19841,23874,24925.00000000006,31559,32758,33375],"survey":"map","page":3,"trial_type":"survey-map","trial_index":6,"time_elapsed":396914,"internal_node_id":"0.0-6.0","task_version":"prescreen-v0.3","browser_interactions":0},{"responses":{"Q10":"2","Q11":"1","Q12":"2","Q13":"4","Q16":"0","Q14":"4","Q15":"4"},"rt":72269.99999999994,"radio_events":[15392,16157.999999999942,29291.99999999994,37307.99999999994,49858.99999999994,55759.99999999994,65125.99999999994,71726.99999999994],"key_events":[],"mouse_events":[14841.999999999942,15392,16157.999999999942,29291.99999999994,37307.99999999994,49275.99999999994,49858.99999999994,55759.99999999994,65125.99999999994,71726.99999999994,72259.99999999994],"survey":"map","page":4,"trial_type":"survey-map","trial_index":7,"time_elapsed":469185,"internal_node_id":"0.0-7.0","task_version":"prescreen-v0.3","browser_interactions":0,"infrequency":0},{"view_history":[{"page_index":0,"viewing_time":3613},{"page_index":1,"viewing_time":6167.000000000058}],"rt":9780.000000000058,"trial_type":"instructions","trial_index":8,"time_elapsed":478974,"internal_node_id":"0.0-8.0","task_version":"prescreen-v0.3"},{"responses":{"01":"No","02":"No","03":"No","04":"No","05":"No","06":"No"},"rt":32161,"item_order":[0,1,2,3,4,5],"radio_events":[12880,17046,20800,22995,26163,30896],"checkbox_events":[],"key_events":[],"mouse_events":[1,12880,17046,20800,22995,26163,30462,30896,32146],"honeypot":0,"survey":"mace","page":1,"trial_type":"survey-mace","trial_index":9,"time_elapsed":511141,"internal_node_id":"0.0-9.0","task_version":"prescreen-v0.3","browser_interactions":0},{"responses":{"01":"No","02":"No","03":"Yes","03_ages_5":"5","04":"No","05":"No","06":"No","07":"No","08":"No"},"rt":51542,"item_order":[0,1,2,3,4,5,6,7],"radio_events":[5212,9663,14480,33714.00000000012,38532,44347,47465,50515],"checkbox_events":[28402],"key_events":[],"mouse_events":[5212,9663,14480,28402,33314,33714.00000000012,38532,44347,47465,50515,51532],"honeypot":0,"survey":"mace","page":2,"trial_type":"survey-mace","trial_index":10,"time_elapsed":562687,"internal_node_id":"0.0-10.0","task_version":"prescreen-v0.3","browser_interactions":0},{"responses":{"01":"No","02":"No","03":"No","04":"No"},"rt":16325,"item_order":[0,1,2,3],"radio_events":[4384,11667,13888,15151],"checkbox_events":[],"key_events":[],"mouse_events":[4384,11667,13888,15151,16317],"honeypot":0,"survey":"mace","page":3,"trial_type":"survey-mace","trial_index":11,"time_elapsed":579017,"internal_node_id":"0.0-11.0","task_version":"prescreen-v0.3","browser_interactions":0},{"responses":{"01":"No","02":"No"},"rt":12247,"item_order":[0,1],"radio_events":[7555,11738],"checkbox_events":[],"key_events":[],"mouse_events":[7204,7555,11738,12243],"honeypot":0,"survey":"mace","page":4,"trial_type":"survey-mace","trial_index":12,"time_elapsed":591267,"internal_node_id":"0.0-12.0","task_version":"prescreen-v0.3","browser_interactions":0},{"responses":{"01":"No","02":"No","03":"No","04":"No","05":"No"},"rt":43656,"item_order":[0,1,2,3,4],"radio_events":[12335,26119,32286,36319,37402],"checkbox_events":[],"key_events":[],"mouse_events":[12335,26119,32286,36319,37402,43652],"honeypot":0,"survey":"mace","page":5,"trial_type":"survey-mace","trial_index":13,"time_elapsed":634928,"internal_node_id":"0.0-13.0","task_version":"prescreen-v0.3","browser_interactions":0},{"responses":{"01":"No","02":"No","03":"No","04":"No","05":"No"},"rt":37201,"item_order":[0,1,2,3,4],"radio_events":[18292.000000000116,23159,28676,30676,34930],"checkbox_events":[],"key_events":[],"mouse_events":[18292.000000000116,23159,28676,30676,34930,37193],"honeypot":0,"survey":"mace","page":6,"trial_type":"survey-mace","trial_index":14,"time_elapsed":672133,"internal_node_id":"0.0-14.0","task_version":"prescreen-v0.3","browser_interactions":0},{"responses":{"01":"No","02":"No","03":"No","04":"No","05":"No","06":"No","07":"No"},"rt":37746,"item_order":[0,1,2,3,4,5,6],"radio_events":[6268,23739,27220,29403,32804,35037,37104],"checkbox_events":[],"key_events":[],"mouse_events":[6268,23739,27220,29403,32804,35037,37104,37737],"honeypot":0,"survey":"mace","page":7,"trial_type":"survey-mace","trial_index":15,"time_elapsed":709885,"internal_node_id":"0.0-15.0","task_version":"prescreen-v0.3","browser_interactions":0},{"responses":{"01":"No","02":"No","03":"No","04":"No"},"rt":28758,"item_order":[0,1,2,3],"radio_events":[10818,15735.000000000116,20168,27267],"checkbox_events":[],"key_events":[],"mouse_events":[10818,15735.000000000116,20168,27267,28751],"honeypot":0,"survey":"mace","page":8,"trial_type":"survey-mace","trial_index":16,"time_elapsed":738649,"internal_node_id":"0.0-16.0","task_version":"prescreen-v0.3","browser_interactions":0},{"responses":{"01":"Yes","01_ages_1":"1","01_ages_2":"2","01_ages_3":"3","01_ages_4":"4","01_ages_5":"5","01_ages_6":"6","01_ages_7":"7","01_ages_8":"8","01_ages_9":"9","01_ages_10":"10","01_ages_11":"11","01_ages_12":"12","01_ages_13":"13","01_ages_14":"14","01_ages_15":"15","01_ages_16":"16","01_ages_17":"17","01_ages_18":"18","02":"Yes","02_ages_1":"1","02_ages_2":"2","02_ages_3":"3","02_ages_4":"4","02_ages_5":"5","02_ages_6":"6","02_ages_7":"7","02_ages_8":"8","02_ages_9":"9","02_ages_10":"10","02_ages_11":"11","02_ages_12":"12","02_ages_13":"13","02_ages_14":"14","02_ages_15":"15","02_ages_16":"16","02_ages_17":"17","02_ages_18":"18","03":"Yes","03_ages_1":"1","03_ages_2":"2","03_ages_3":"3","03_ages_4":"4","03_ages_5":"5","03_ages_6":"6","03_ages_7":"7","03_ages_8":"8","03_ages_9":"9","03_ages_10":"10","03_ages_11":"11","03_ages_12":"12","03_ages_13":"13","03_ages_14":"14","03_ages_15":"15","03_ages_16":"16","03_ages_17":"17","03_ages_18":"18","04":"Yes","04_ages_1":"1","04_ages_2":"2","04_ages_3":"3","04_ages_4":"4","04_ages_5":"5","04_ages_6":"6","04_ages_7":"7","04_ages_8":"8","04_ages_9":"9","04_ages_10":"10","04_ages_11":"11","04_ages_12":"12","04_ages_13":"13","04_ages_14":"14","04_ages_15":"15","04_ages_16":"16","04_ages_17":"17","04_ages_18":"18"},"rt":90202,"item_order":[0,1,2,3],"radio_events":[10839,38039,59640,78274],"checkbox_events":[20638,21172,21871,23106,24005,24723,25156,25708,26106,26574,27488,28955,29706,30321,30808,31439,31889.000000000116,32638,40573,44123,44789,45205,46189,46655,47110.00000000012,47522,48056,48888,49990.00000000012,50676,51139.00000000012,51672,52156,52593,53092,53606,60807,61323,62107,62590,63090,63890,64506,65206,65740.00000000012,66490.00000000012,66973,67673.00000000012,68106,68723,69611,69990.00000000012,70507,71040,80123,80690,81207,81691,82210,82908.00000000012,84040,84491,84891,85295,85843,86295,86962,87423.00000000012,88257,88741,89178,89641],"key_events":[],"mouse_events":[10839,20638,21172,21871,22488,23106,23572.000000000116,24005,24723,25156,25708,26106,26574,26924,27488,28045,28955,29422,29706,30321,30808,31439,31889.000000000116,32339,32638,38039,40573,44123,44789,45205,45589,46189,46655,47110.00000000012,47522,48056,48426,48888,49990.00000000012,50676,51139.00000000012,51672,52156,52593,53092,53606,59640,60807,61323,62107,62590,63090,63494,63890,64506,65206,65740.00000000012,66139.00000000012,66490.00000000012,66973,67673.00000000012,68106,68723,69611,69990.00000000012,70507,71040,78274,80123,80690,81207,81691,82210,82908.00000000012,84040,84491,84891,85295,85843,86295,86962,87423.00000000012,88257,88741,89178,89641,90191],"honeypot":0,"survey":"mace","page":9,"trial_type":"survey-mace","trial_index":17,"time_elapsed":828853,"internal_node_id":"0.0-17.0","task_version":"prescreen-v0.3","browser_interactions":0},{"responses":{"01":"No","02":"No","03":"No","04":"Yes","04_ages_12":"12","04_ages_13":"13","04_ages_14":"14","04_ages_15":"15","05":"No","06":"Yes","06_ages_17":"17","07":"Yes","07_ages_1":"1","07_ages_2":"2","07_ages_3":"3","07_ages_4":"4","07_ages_5":"5","07_ages_6":"6","07_ages_7":"7","07_ages_8":"8","07_ages_9":"9","07_ages_10":"10","07_ages_11":"11","07_ages_12":"12","07_ages_13":"13","07_ages_14":"14","07_ages_15":"15","07_ages_16":"16","07_ages_17":"17","07_ages_18":"18","08":"Yes","08_ages_1":"1","08_ages_2":"2","08_ages_3":"3","08_ages_4":"4","08_ages_5":"5","08_ages_6":"6","08_ages_7":"7","08_ages_8":"8","08_ages_9":"9","08_ages_10":"10","08_ages_11":"11","08_ages_12":"12","08_ages_13":"13","08_ages_14":"14","08_ages_15":"15","08_ages_16":"16","08_ages_17":"17","08_ages_18":"18"},"rt":76963,"item_order":[0,1,2,3,4,5,6,7],"radio_events":[6914,9117,13119,17783,38050.00000000012,41167,52534,67484],"checkbox_events":[25883,26249,26837,29003,30531.000000000116,31185.000000000116,42534,54084.00000000012,54450,54834.00000000012,55218,56217,56537,56983.00000000012,57350,60035,60586,60902,61750,62801,63484,64050.00000000012,64734,65067,65434,68835,69201,69617,70084.00000000012,70434,70868,71204.00000000012,71584.00000000012,72119,72534,72966,73335,73717,74084.00000000012,74585,75602,75887.00000000012,76304],"key_events":[],"mouse_events":[6914,9117,13119,17783,25883,26249,26837,29003,30531.000000000116,31185.000000000116,38050.00000000012,41167,42534,52534,54084.00000000012,54450,54834.00000000012,55218,55667,56217,56537,56983.00000000012,57350,60035,60586,60902,61750,62801,63138,63484,64050.00000000012,64734,65067,65434,67484,68835,69201,69617,70084.00000000012,70434,70868,71204.00000000012,71584.00000000012,72119,72534,72966,73335,73717,74084.00000000012,74585,75602,75887.00000000012,76304,76952],"honeypot":0,"survey":"mace","page":10,"trial_type":"survey-mace","trial_index":18,"time_elapsed":905821,"internal_node_id":"0.0-18.0","task_version":"prescreen-v0.3","browser_interactions":0,"instructed":0},{"rt":15935,"trial_type":"mental-health-alert","trial_index":19,"time_elapsed":921761,"internal_node_id":"0.0-19.0","task_version":"prescreen-v0.3","interactions":"[{\"event\":\"blur\",\"trial\":3,\"time\":246040},{\"event\":\"focus\",\"trial\":3,\"time\":252206},{\"event\":\"focus\",\"trial\":3,\"time\":252208},{\"event\":\"blur\",\"trial\":3,\"time\":302182},{\"event\":\"focus\",\"trial\":3,\"time\":306896},{\"event\":\"focus\",\"trial\":3,\"time\":306899}]"}]