[{"view_history":[{"page_index":0,"viewing_time":5176},{"page_index":1,"viewing_time":70},{"page_index":2,"viewing_time":7695},{"page_index":3,"viewing_time":2497}],"rt":15439,"trial_type":"instructions","trial_index":0,"time_elapsed":15445,"internal_node_id":"0.0-0.0","task_version":"prescreen-v0.3"},{"rt":39612,"responses":{"age":"48","gender-categorical":"Male","gender-free-response":"","ethnicity":"Not Hispanic or Latino","race":["White"],"education":"Master degree or higher"},"trial_type":"survey-demo","trial_index":1,"time_elapsed":55079,"internal_node_id":"0.0-1.0","task_version":"prescreen-v0.3"},{"responses":{"Q11":"2","Q05":"1","Q06":"2","Q09":"0","Q01":"0","Q20":"0","Q21":"2","Q14":"1","Q10":"0","Q13":"1","Q12":"0","Q08":"1","Q19":"0","Q04":"0","Q03":"0","Q02":"0","Q18":"0","Q17":"0","Q16":"0","Q15":"0","Q07":"1"},"rt":125436,"item_order":[10,4,5,8,0,19,20,13,9,12,11,7,18,3,2,1,17,16,15,14,6],"radio_events":[11274,16400,22256,29871,29960,31968,33624,33728,38849,38919,43608,43681,49233,49353,56368,62551,67089,72088,76809,79304,79368,83240,87456,87528,89776,95560,95623,101199,108424],"key_events":[],"mouse_events":[7872,11274,16400,20777,22256,26425,26504,29871,29960,31968,33624,33728,38849,38919,43608,43681,48784,49233,49353,56368,62551,66504,66575,67089,72088,76809,79304,79368,83240,87456,87528,89776,95560,95623,101199,101289,108424,111768,111828,113193,125435],"straightlining":0.6190476190476191,"zigzagging":0.45,"honeypot":0,"survey":"sns","trial_type":"survey-template","trial_index":2,"time_elapsed":180529,"internal_node_id":"0.0-2.0","task_version":"prescreen-v0.3","browser_interactions":4,"infrequency":0.5},{"responses":{"Q10":"2","Q12":"1","Q13":"0","Q04":"1","Q01":"0","Q05":"2","Q11":"2","Q02":"1","Q03":"1","Q06":"3","Q08":"1","Q07":"3","Q09":"3"},"rt":110976,"item_order":[9,11,12,3,0,4,10,1,2,5,7,6,8],"radio_events":[11896,11969,17497,17609,26425,26514,35001,35088,37986,43776,43872,51785,51873,55098,67801,75921,82105,82201,91312,91432,95673,107001],"key_events":[],"mouse_events":[5658,11896,11969,16745,16842,17497,17609,25673,26425,26514,30193,35001,35088,37365,37986,42929,43776,43872,51785,51873,55098,65883,65993,67801,75250,75921,82105,82201,90810,90889,91312,91432,95673,102426,106161,107001,110976],"straightlining":0.38461538461538464,"zigzagging":0.4166666666666667,"honeypot":0,"survey":"bisbas","trial_type":"survey-template","trial_index":3,"time_elapsed":291515,"internal_node_id":"0.0-3.0","task_version":"prescreen-v0.3","browser_interactions":10,"infrequency":0},{"responses":{"Q01":"2","Q02":"4","Q03":"3"},"rt":31458,"radio_events":[10350,16663,16751,27112],"key_events":[],"mouse_events":[5112,10350,16663,16751,27112,30425,30479,31457],"survey":"map","page":1,"trial_type":"survey-map","trial_index":4,"time_elapsed":322982,"internal_node_id":"0.0-4.0","task_version":"prescreen-v0.3","browser_interactions":4},{"responses":{"Q04":"3","Q05":"3","Q06":"3"},"rt":22608,"radio_events":[9750,9823,13998,14077,18206,21755,21823],"key_events":[],"mouse_events":[9750,9823,13998,14077,18206,21755,21823,22608],"survey":"map","page":2,"trial_type":"survey-map","trial_index":5,"time_elapsed":345597,"internal_node_id":"0.0-5.0","task_version":"prescreen-v0.3","browser_interactions":4},{"responses":{"Q07":"4","Q08":"3","Q09":"4"},"rt":34241,"radio_events":[10187,10271,19847,19942,30198,33199],"key_events":[],"mouse_events":[10187,10271,18687,19366,19431,19847,19942,30198,33199,34241],"survey":"map","page":3,"trial_type":"survey-map","trial_index":6,"time_elapsed":379846,"internal_node_id":"0.0-6.0","task_version":"prescreen-v0.3","browser_interactions":4},{"responses":{"Q10":"3","Q11":"3","Q12":"2","Q13":"2","Q16":"2","Q14":"3","Q15":"4"},"rt":144768,"radio_events":[17990,18093,24173,24269,31061,31157,34702,34784,47597,47694,55581,55680,60822,60925,68397,78205,78277,134574,143622],"key_events":[],"mouse_events":[5822,17310,17390,17990,18093,23470,23567,24173,24269,31061,31157,32878,33941,34030,34702,34784,47597,47694,55581,55680,60109,60237,60822,60925,68397,77569,78205,78277,81926,82582,83741,85744,134574,135533,135622,143622,144768],"survey":"map","page":4,"trial_type":"survey-map","trial_index":7,"time_elapsed":524621,"internal_node_id":"0.0-7.0","task_version":"prescreen-v0.3","browser_interactions":8,"infrequency":1},{"view_history":[{"page_index":0,"viewing_time":5553},{"page_index":1,"viewing_time":10921}],"rt":16474,"trial_type":"instructions","trial_index":8,"time_elapsed":541099,"internal_node_id":"0.0-8.0","task_version":"prescreen-v0.3"},{"responses":{"01":"Yes","01_ages_7":"7","01_ages_8":"8","01_ages_9":"9","01_ages_10":"10","02":"Yes","02_ages_9":"9","02_ages_10":"10","02_ages_11":"11","02_ages_12":"12","02_ages_13":"13","03":"No","04":"Yes","04_ages_15":"15","04_ages_16":"16","04_ages_17":"17","04_ages_18":"18","05":"No","06":"Yes","06_ages_13":"13","06_ages_14":"14","06_ages_15":"15","06_ages_16":"16"},"rt":114455,"item_order":[0,1,2,3,4,5],"radio_events":[14380,18292,36076,70074,74387,91148,95353,95442],"checkbox_events":[21724,21803,22771,23339,23418,24642,24707,25650,25707,27380,28746,29571,40543,41195,41259,42075,42146,43411,44259,45074,47130,47210,48043,50772,52235,55467,65594,75739,76307,77236,78600,78682,79641,79699,80284,80362,80899,80963,81581,82275,83139,84290,85466,86451,87170,97259,97330,98875,98954,99867,99955,101235,102083,102899,105421,107428,107507,108545,109530],"key_events":[],"mouse_events":[0,74,8339,13412,13498,14380,18292,21724,21803,22771,23339,23418,24220,24642,24707,25650,25707,26748,26827,27380,28746,29571,36076,37683,37773,40543,41195,41259,42075,42146,43411,44259,45074,47130,47210,48043,50772,52235,53002,55467,65594,70074,74387,75739,76307,76821,77236,78600,78682,79641,79699,80284,80362,80899,80963,81581,82275,83139,84290,84870,84930,85466,86451,87170,91148,95353,95442,96802,97259,97330,98875,98954,99867,99955,100707,100779,101235,102083,102899,104331,104420,104851,104939,105421,106907,106954,107428,107507,108545,109530,113070,113123,114455],"honeypot":0,"survey":"mace","page":1,"trial_type":"survey-mace","trial_index":9,"time_elapsed":655581,"internal_node_id":"0.0-9.0","task_version":"prescreen-v0.3","browser_interactions":4},{"responses":{"01":"Yes","01_ages_11":"11","01_ages_12":"12","01_ages_13":"13","01_ages_14":"14","02":"No","03":"No","04":"No","05":"No","06":"No","07":"No","08":"No"},"rt":82124,"item_order":[0,1,2,3,4,5,6,7],"radio_events":[18898,25034,28849,28943,32120,35801,35912,38959,39039,63024,66664,80903],"checkbox_events":[41297,41359,42168,42928,43679,45201,49330,50264,54262,55167],"key_events":[],"mouse_events":[9296,18898,24399,25034,28849,28943,32120,35801,35912,38959,39039,40551,41297,41359,42168,42928,43679,45201,49330,50264,54262,55167,63024,66664,80903,82124],"honeypot":0,"survey":"mace","page":2,"trial_type":"survey-mace","trial_index":10,"time_elapsed":737721,"internal_node_id":"0.0-10.0","task_version":"prescreen-v0.3","browser_interactions":4},{"responses":{"01":"No","02":"No","03":"No","04":"No"},"rt":32422,"item_order":[0,1,2,3],"radio_events":[8995,9063,28991,29106,30688,31328],"checkbox_events":[],"key_events":[],"mouse_events":[8995,9063,27337,28991,29106,30688,31328,32422],"honeypot":0,"survey":"mace","page":3,"trial_type":"survey-mace","trial_index":11,"time_elapsed":770152,"internal_node_id":"0.0-11.0","task_version":"prescreen-v0.3","browser_interactions":2},{"responses":{"01":"No","02":"No"},"rt":24742,"item_order":[0,1],"radio_events":[9611,9688,16474,17916,17993],"checkbox_events":[],"key_events":[],"mouse_events":[8177,9611,9688,16474,17425,17916,17993,24742],"honeypot":0,"survey":"mace","page":4,"trial_type":"survey-mace","trial_index":12,"time_elapsed":794904,"internal_node_id":"0.0-12.0","task_version":"prescreen-v0.3","browser_interactions":4},{"responses":{"01":"No","02":"No","03":"Yes","03_ages_9":"9","03_ages_10":"10","03_ages_14":"14","03_ages_15":"15","03_ages_16":"16","04":"Yes","04_ages_9":"9","04_ages_10":"10","04_ages_14":"14","04_ages_15":"15","04_ages_16":"16","05":"No"},"rt":142988,"item_order":[0,1,2,3,4],"radio_events":[15456,28630,43582,70279,89487],"checkbox_events":[45688,45800,47992,48070,48768,48848,49510,49582,50359,50437,51031,52639,55333,57486,59539,72330,72438,73573,73638,74335,75111,76110,76597,76679,77247,78527],"key_events":[],"mouse_events":[15456,21847,28630,41699,43582,44718,45688,45800,47992,48070,48768,48848,49510,49582,50359,50437,51031,52639,53439,54103,55333,56767,57486,59539,70279,71447,72330,72438,73143,73573,73638,74335,75111,76110,76597,76679,77247,78527,88264,89487,127829,134217,142988],"honeypot":0,"survey":"mace","page":5,"trial_type":"survey-mace","trial_index":13,"time_elapsed":937909,"internal_node_id":"0.0-13.0","task_version":"prescreen-v0.3","browser_interactions":8},{"responses":{"01":"No","02":"Yes","02_ages_8":"8","02_ages_9":"9","02_ages_11":"11","02_ages_12":"12","03":"Yes","03_ages_14":"14","03_ages_15":"15","03_ages_16":"16","03_ages_17":"17","03_ages_18":"18","04":"No","05":"No"},"rt":82686,"item_order":[0,1,2,3,4],"radio_events":[7480,13489,44641,47497,77128],"checkbox_events":[34595,35250,36064,36578,50426,51053,51569,51642,52786,54689,55794,58106,60081,60953,62081,62137,67010,67057,67688,68537,69467],"key_events":[],"mouse_events":[7480,13489,14641,34595,35250,36064,36578,42448,44641,47497,49177,49936,50426,51053,51569,51642,52786,53977,54049,54689,55441,55794,57528,58106,60081,60953,62081,62137,67010,67057,67632,67688,68537,69467,77128,82686],"honeypot":0,"survey":"mace","page":6,"trial_type":"survey-mace","trial_index":14,"time_elapsed":1020610,"internal_node_id":"0.0-14.0","task_version":"prescreen-v0.3","browser_interactions":4},{"responses":{"01":"Yes","01_ages_15":"15","01_ages_16":"16","01_ages_17":"17","02":"Yes","02_ages_13":"13","02_ages_14":"14","02_ages_15":"15","03":"Yes","03_ages_11":"11","03_ages_12":"12","03_ages_13":"13","03_ages_14":"14","03_ages_15":"15","04":"Yes","04_ages_11":"11","04_ages_12":"12","04_ages_13":"13","04_ages_14":"14","04_ages_15":"15","05":"No","06":"No","07":"No"},"rt":80474,"item_order":[0,1,2,3,4,5,6],"radio_events":[8115,17147,30314,43620,60692,68005,68083,70051],"checkbox_events":[10051,10787,12795,19818,20740,21314,23211,25321,31644,31699,32524,32586,33946,34611,35756,37307,37370,38147,39178,45419,46106,46948,50938,51651,51698,53699],"key_events":[],"mouse_events":[8115,9090,9525,9579,10051,10787,12795,17147,19034,19818,20740,21314,21947,23211,25321,30314,31644,31699,32524,32586,33946,34611,35329,35377,35756,37307,37370,38147,39178,43620,45419,46106,46948,50938,51651,51698,53699,60692,68005,68083,70051,80474],"honeypot":0,"survey":"mace","page":7,"trial_type":"survey-mace","trial_index":15,"time_elapsed":1101103,"internal_node_id":"0.0-15.0","task_version":"prescreen-v0.3","browser_interactions":4},{"responses":{"01":"No","02":"No","03":"No","03_ages_11":"11","03_ages_12":"12","03_ages_13":"13","04":"No"},"rt":170120,"item_order":[0,1,2,3],"radio_events":[17942,28350,34951,35021,49501,51997,52037,145160],"checkbox_events":[36983,37046,37838,37902,38472,38510,39174,39221,39694,39742,42157,42397,42973,43871,44437],"key_events":[],"mouse_events":[17942,28350,34951,35021,36983,37046,37838,37902,38472,38510,39174,39221,39694,39742,42157,42397,42973,43871,44437,49501,50765,51997,52037,65822,145160,152968,169581,170120],"honeypot":0,"survey":"mace","page":8,"trial_type":"survey-mace","trial_index":16,"time_elapsed":1271237,"internal_node_id":"0.0-16.0","task_version":"prescreen-v0.3","browser_interactions":8},{"responses":{"01":"Yes","01_ages_1":"1","01_ages_2":"2","01_ages_3":"3","01_ages_4":"4","01_ages_5":"5","01_ages_6":"6","01_ages_7":"7","01_ages_8":"8","01_ages_9":"9","01_ages_10":"10","01_ages_11":"11","01_ages_12":"12","01_ages_13":"13","01_ages_14":"14","01_ages_15":"15","01_ages_16":"16","01_ages_17":"17","01_ages_18":"18","02":"Yes","02_ages_13":"13","02_ages_14":"14","02_ages_15":"15","02_ages_16":"16","02_ages_17":"17","02_ages_18":"18","03":"Yes","03_ages_1":"1","03_ages_2":"2","03_ages_3":"3","03_ages_4":"4","03_ages_5":"5","03_ages_6":"6","03_ages_7":"7","03_ages_8":"8","03_ages_9":"9","03_ages_10":"10","03_ages_11":"11","03_ages_12":"12","03_ages_13":"13","03_ages_14":"14","03_ages_15":"15","03_ages_16":"16","03_ages_17":"17","03_ages_18":"18","04":"Yes","04_ages_1":"1","04_ages_2":"2","04_ages_3":"3","04_ages_4":"4","04_ages_5":"5","04_ages_6":"6","04_ages_7":"7","04_ages_8":"8","04_ages_9":"9","04_ages_10":"10","04_ages_11":"11","04_ages_12":"12","04_ages_13":"13","04_ages_14":"14","04_ages_15":"15","04_ages_16":"16","04_ages_17":"17","04_ages_18":"18"},"rt":131190,"item_order":[0,1,2,3],"radio_events":[10638,53348,67179,67251,100419],"checkbox_events":[14754,15372,16499,17621,18154,19275,21252,21948,25251,26123,26845,35484,36899,37435,37987,39627,40652,41844,43147,44277,45267,47067,54900,55515,56644,57994,58618,59106,59186,60322,60387,61530,68998,69555,70626,71180,71682,72147,72644,73107,73603,74572,75147,75722,76961,77571,78563,79187,79827,81179,103750,103811,105236,105962,106507,107555,108627,109659,110371,111372,111427,112307,112362,112922,113821,114914,116258,117444,118349,119148,119811,119875,120691,121395,122547,123482],"key_events":[],"mouse_events":[44,10638,14754,15372,15940,16499,17196,17621,18154,18653,19275,21252,21948,25251,26123,26845,27869,28317,35484,36899,37435,37987,38652,39627,40210,40652,41412,41844,42612,43147,44277,45267,47067,52842,53348,54900,55515,56098,56644,57237,57298,57994,58618,59106,59186,60322,60387,61530,65354,66691,67179,67251,68998,69555,70163,70234,70626,71180,71682,72147,72644,73107,73603,74042,74572,75147,75722,76235,76961,77571,78107,78563,79187,79827,80457,81179,100419,103750,103811,105236,105962,106507,107084,107555,108177,108627,109234,109659,110371,111372,111427,112307,112362,112922,113821,114914,116258,117444,118349,119148,119811,119875,120691,121395,122547,123482,127485,127554,131189],"honeypot":0,"survey":"mace","page":9,"trial_type":"survey-mace","trial_index":17,"time_elapsed":1402440,"internal_node_id":"0.0-17.0","task_version":"prescreen-v0.3","browser_interactions":4},{"responses":{"01":"No","02":"No","03":"Yes","03_ages_17":"17","03_ages_18":"18","04":"Yes","04_ages_18":"18","05":"No","06":"Yes","06_ages_17":"17","07":"Yes","07_ages_16":"16","07_ages_17":"17","07_ages_18":"18","08":"Yes","08_ages_1":"1","08_ages_2":"2","08_ages_3":"3","08_ages_4":"4","08_ages_5":"5","08_ages_6":"6","08_ages_7":"7","08_ages_8":"8","08_ages_9":"9","08_ages_10":"10","08_ages_11":"11","08_ages_12":"12","08_ages_13":"13","08_ages_14":"14","08_ages_15":"15","08_ages_16":"16","08_ages_17":"17","08_ages_18":"18"},"rt":196960,"item_order":[0,1,2,3,4,5,6,7],"radio_events":[37420,37499,47507,47571,54507,54578,65229,143987,147083,159611,167066],"checkbox_events":[56028,56099,57811,57884,58771,59763,67411,148524,148595,150083,160578,161266,161755,161827,163030,168548,169210,169781,170252,170306,171780,172483,173339,174924,175636,175691,177626,177674,178564,178618,179436,179490,180691,181332,182707,183838,184499,185146,185795,186802,187522,188186,188834],"key_events":[],"mouse_events":[43,6469,37420,37499,47507,47571,54043,54507,54578,55692,56028,56099,57811,57884,58771,59763,65229,67411,140954,143987,147083,148524,148595,150083,159611,160578,161266,161755,161827,163030,167066,168548,169210,169781,170252,170306,171402,171780,172483,173339,174924,175636,175691,177626,177674,178564,178618,179436,179490,180691,181332,182707,183370,183838,184499,185146,185795,186369,186802,187522,188186,188834,195733,196959],"honeypot":0,"survey":"mace","page":10,"trial_type":"survey-mace","trial_index":18,"time_elapsed":1599425,"internal_node_id":"0.0-18.0","task_version":"prescreen-v0.3","browser_interactions":14,"instructed":0},{"rt":30571,"trial_type":"mental-health-alert","trial_index":19,"time_elapsed":1630000,"internal_node_id":"0.0-19.0","task_version":"prescreen-v0.3","interactions":"[{\"event\":\"focus\",\"trial\":0,\"time\":2495},{\"event\":\"blur\",\"trial\":0,\"time\":2496},{\"event\":\"focus\",\"trial\":0,\"time\":3878},{\"event\":\"blur\",\"trial\":1,\"time\":22452},{\"event\":\"focus\",\"trial\":1,\"time\":24683},{\"event\":\"blur\",\"trial\":1,\"time\":25563},{\"event\":\"focus\",\"trial\":1,\"time\":33188},{\"event\":\"blur\",\"trial\":1,\"time\":37011},{\"event\":\"focus\",\"trial\":1,\"time\":38068},{\"event\":\"blur\",\"trial\":2,\"time\":60162},{\"event\":\"focus\",\"trial\":2,\"time\":62877},{\"event\":\"blur\",\"trial\":2,\"time\":165404},{\"event\":\"focus\",\"trial\":2,\"time\":166847},{\"event\":\"blur\",\"trial\":3,\"time\":183425},{\"event\":\"focus\",\"trial\":3,\"time\":186116},{\"event\":\"blur\",\"trial\":3,\"time\":202083},{\"event\":\"focus\",\"trial\":3,\"time\":202130},{\"event\":\"blur\",\"trial\":3,\"time\":203142},{\"event\":\"focus\",\"trial\":3,\"time\":206188},{\"event\":\"blur\",\"trial\":3,\"time\":208372},{\"event\":\"focus\",\"trial\":3,\"time\":210629},{\"event\":\"blur\",\"trial\":3,\"time\":278998},{\"event\":\"focus\",\"trial\":3,\"time\":282940},{\"event\":\"blur\",\"trial\":4,\"time\":293841},{\"event\":\"focus\",\"trial\":4,\"time\":296566},{\"event\":\"blur\",\"trial\":4,\"time\":320272},{\"event\":\"focus\",\"trial\":4,\"time\":321933},{\"event\":\"blur\",\"trial\":5,\"time\":325000},{\"event\":\"focus\",\"trial\":5,\"time\":327830},{\"event\":\"blur\",\"trial\":5,\"time\":342423},{\"event\":\"focus\",\"trial\":5,\"time\":344733},{\"event\":\"blur\",\"trial\":6,\"time\":347239},{\"event\":\"focus\",\"trial\":6,\"time\":355773},{\"event\":\"blur\",\"trial\":6,\"time\":376936},{\"event\":\"focus\",\"trial\":6,\"time\":378731},{\"event\":\"blur\",\"trial\":7,\"time\":381645},{\"event\":\"focus\",\"trial\":7,\"time\":385590},{\"event\":\"blur\",\"trial\":7,\"time\":449743},{\"event\":\"focus\",\"trial\":7,\"time\":457311},{\"event\":\"blur\",\"trial\":7,\"time\":467774},{\"event\":\"focus\",\"trial\":7,\"time\":512682},{\"event\":\"blur\",\"trial\":7,\"time\":512780},{\"event\":\"focus\",\"trial\":7,\"time\":512781},{\"event\":\"blur\",\"trial\":9,\"time\":544603},{\"event\":\"focus\",\"trial\":9,\"time\":549384},{\"event\":\"blur\",\"trial\":9,\"time\":652349},{\"event\":\"focus\",\"trial\":9,\"time\":654171},{\"event\":\"blur\",\"trial\":10,\"time\":658544},{\"event\":\"focus\",\"trial\":10,\"time\":664791},{\"event\":\"blur\",\"trial\":10,\"time\":728553},{\"event\":\"focus\",\"trial\":10,\"time\":736400},{\"event\":\"blur\",\"trial\":11,\"time\":740044},{\"event\":\"focus\",\"trial\":11,\"time\":746685},{\"event\":\"blur\",\"trial\":12,\"time\":773316},{\"event\":\"focus\",\"trial\":12,\"time\":778266},{\"event\":\"blur\",\"trial\":12,\"time\":789351},{\"event\":\"focus\",\"trial\":12,\"time\":794767},{\"event\":\"blur\",\"trial\":13,\"time\":796447},{\"event\":\"focus\",\"trial\":13,\"time\":810244},{\"event\":\"blur\",\"trial\":13,\"time\":880635},{\"event\":\"focus\",\"trial\":13,\"time\":883083},{\"event\":\"blur\",\"trial\":13,\"time\":886690},{\"event\":\"focus\",\"trial\":13,\"time\":922623},{\"event\":\"blur\",\"trial\":13,\"time\":927029},{\"event\":\"focus\",\"trial\":13,\"time\":929038},{\"event\":\"blur\",\"trial\":14,\"time\":939943},{\"event\":\"focus\",\"trial\":14,\"time\":945312},{\"event\":\"blur\",\"trial\":14,\"time\":1016512},{\"event\":\"focus\",\"trial\":14,\"time\":1020491},{\"event\":\"blur\",\"trial\":15,\"time\":1022904},{\"event\":\"focus\",\"trial\":15,\"time\":1028665},{\"event\":\"blur\",\"trial\":15,\"time\":1098180},{\"event\":\"focus\",\"trial\":15,\"time\":1100946},{\"event\":\"blur\",\"trial\":16,\"time\":1103246},{\"event\":\"focus\",\"trial\":16,\"time\":1118971},{\"event\":\"blur\",\"trial\":16,\"time\":1158807},{\"event\":\"focus\",\"trial\":16,\"time\":1166862},{\"event\":\"blur\",\"trial\":16,\"time\":1247626},{\"event\":\"focus\",\"trial\":16,\"time\":1253968},{\"event\":\"blur\",\"trial\":16,\"time\":1264705},{\"event\":\"focus\",\"trial\":16,\"time\":1270622},{\"event\":\"blur\",\"trial\":17,\"time\":1274121},{\"event\":\"focus\",\"trial\":17,\"time\":1281821},{\"event\":\"blur\",\"trial\":17,\"time\":1396631},{\"event\":\"focus\",\"trial\":17,\"time\":1398716},{\"event\":\"blur\",\"trial\":18,\"time\":1405964},{\"event\":\"focus\",\"trial\":18,\"time\":1408843},{\"event\":\"blur\",\"trial\":18,\"time\":1488531},{\"event\":\"focus\",\"trial\":18,\"time\":1493969},{\"event\":\"blur\",\"trial\":18,\"time\":1494750},{\"event\":\"focus\",\"trial\":18,\"time\":1531993},{\"event\":\"blur\",\"trial\":18,\"time\":1532417},{\"event\":\"focus\",\"trial\":18,\"time\":1539348},{\"event\":\"blur\",\"trial\":18,\"time\":1539372},{\"event\":\"focus\",\"trial\":18,\"time\":1539399},{\"event\":\"blur\",\"trial\":18,\"time\":1540467},{\"event\":\"focus\",\"trial\":18,\"time\":1541746},{\"event\":\"blur\",\"trial\":18,\"time\":1595956},{\"event\":\"focus\",\"trial\":18,\"time\":1598104},{\"event\":\"blur\",\"trial\":19,\"time\":1607059},{\"event\":\"focus\",\"trial\":19,\"time\":1613521},{\"event\":\"blur\",\"trial\":19,\"time\":1619230},{\"event\":\"focus\",\"trial\":19,\"time\":1627672}]"}]